time,seconds_elapsed,z,y,x
1773237392614960000,0.515960205078125,4.093999862670898,0.5139999985694885,8.288000106811523
1773237392625030400,0.526030517578125,3.933000087738037,0.8159999847412109,8.333999633789062
1773237392635100700,0.5361005859375,3.634000062942505,0.9070000052452087,8.45300006866455
1773237392645171200,0.546171142578125,3.549999952316284,0.8610000014305115,8.675999641418457
1773237392655241500,0.556241455078125,3.2290000915527344,0.5860000252723694,8.994999885559082
1773237392665311700,0.566311767578125,2.765000104904175,0.2919999957084656,9.329999923706055
1773237392675382000,0.576382080078125,2.611999988555908,0.10499999672174454,9.39900016784668
1773237392685452300,0.586452392578125,2.6019999980926514,-0.10000000149011612,9.343999862670898
1773237392695522600,0.5965224609375,2.193000078201294,-0.35600000619888306,9.456999778747559
1773237392705593000,0.606593017578125,2.114000082015991,-0.47600001096725464,9.604999542236328
1773237392715663400,0.616663330078125,2.424999952316284,-0.34700000286102295,9.484999656677246
1773237392725733600,0.626733642578125,2.6549999713897705,-0.16200000047683716,9.270000457763672
1773237392735804000,0.636803955078125,2.5329999923706055,-0.03099999949336052,9.298999786376953
1773237392745874200,0.646874267578125,2.6429998874664307,0.20499999821186066,9.368000030517578
1773237392755944400,0.6569443359375,2.765000104904175,0.4620000123977661,9.081000328063965
1773237392766014700,0.6670146484375,2.765000104904175,0.550000011920929,8.968000411987305
1773237392776085200,0.677085205078125,2.4560000896453857,0.4090000092983246,9.178999900817871
1773237392786155500,0.687155517578125,2.441999912261963,0.2919999957084656,9.305999755859375
1773237392796225500,0.6972255859375,2.4539999961853027,0.2199999988079071,9.3149995803833
1773237392806296000,0.707296142578125,2.5920000076293945,0.06400000303983688,9.295999526977539
1773237392816366300,0.717366455078125,2.3340001106262207,-0.07900000363588333,9.253000259399414
1773237392826436600,0.7274365234375,2.572999954223633,-0.16500000655651093,9.185999870300293
1773237392836507000,0.7375068359375,3.0329999923706055,-0.2029999941587448,9.071000099182129
1773237392846577200,0.7475771484375,3.0139999389648438,-0.26499998569488525,9.09000015258789
1773237392856647400,0.7576474609375,3.003999948501587,-0.3059999942779541,9.232000350952148
1773237392866717700,0.7677177734375,3.319999933242798,-0.05900000035762787,9.222000122070312
1773237392876788000,0.7777880859375,3.1740000247955322,0.3779999911785126,9.001999855041504
1773237392886858200,0.787858154296875,3.3540000915527344,0.7820000052452087,8.869999885559082
1773237392896928500,0.797928466796875,3.2149999141693115,1.1649999618530273,8.925000190734863
1773237392906999000,0.8079990234375,3.121999979019165,1.5269999504089355,8.994999885559082
1773237392917069300,0.8180693359375,3.319999933242798,1.7519999742507935,8.70199966430664
1773237392927139600,0.8281396484375,3.125999927520752,1.6109999418258667,8.576000213623047
1773237392937209900,0.8382099609375,3.0209999084472656,1.1579999923706055,8.876999855041504
1773237392947280100,0.848280029296875,3.125999927520752,0.5690000057220459,9.038000106811523
1773237392957350400,0.858350341796875,2.9709999561309814,-0.0860000029206276,8.984999656677246
1773237392967420700,0.868420654296875,3.3970000743865967,-0.6579999923706055,9.119000434875488
1773237392977491000,0.878490966796875,2.9539999961853027,-1.1460000276565552,8.982999801635742
1773237392987561200,0.888561279296875,3.25600004196167,-1.4620000123977661,8.901000022888184
1773237392997631700,0.8986318359375,3.4639999866485596,-1.5839999914169312,9.045000076293945
1773237393007702000,0.908701904296875,3.4570000171661377,-1.625,9.074000358581543
1773237393017772300,0.918772216796875,3.4830000400543213,-1.496000051498413,8.946999549865723
1773237393027842600,0.928842529296875,3.7799999713897705,-1.0460000038146973,8.930000305175781
1773237393037912800,0.938912841796875,4.039000034332275,-0.5210000276565552,8.756999969482422
1773237393047983000,0.948983154296875,3.9210000038146973,0.02800000086426735,8.619000434875488
1773237393058053400,0.959053466796875,3.6480000019073486,0.5600000023841858,8.630999565124512
1773237393068123600,0.96912353515625,3.6630001068115234,1.125,8.512999534606934
1773237393078194200,0.979194091796875,3.4619998931884766,1.5169999599456787,8.47700023651123
1773237393088264400,0.989264404296875,3.365999937057495,1.4910000562667847,8.635000228881836
1773237393098334700,0.999334716796875,2.7360000610351562,1.1150000095367432,8.92300033569336
1773237393108405000,1.009405029296875,2.492000102996826,0.7179999947547913,9.217000007629395
1773237393118475300,1.019475341796875,2.4609999656677246,0.3160000145435333,9.380000114440918
1773237393128545500,1.029545654296875,2.63100004196167,-0.10999999940395355,9.609999656677246
1773237393138616000,1.039615966796875,2.190000057220459,-0.36800000071525574,9.706000328063965
1773237393148686300,1.049686279296875,2.7260000705718994,-0.2840000092983246,9.468999862670898
1773237393158756600,1.059756591796875,3.302999973297119,-0.14100000262260437,8.913000106811523
1773237393168827000,1.069826904296875,3.380000114440918,-0.007000000216066837,8.805000305175781
1773237393178897200,1.079897216796875,3.7899999618530273,0.22699999809265137,8.755000114440918
1773237393188967700,1.0899677734375,4.144000053405762,0.6579999923706055,8.300000190734863
1773237393199038000,1.100037841796875,4.581999778747559,0.9620000123977661,7.888000011444092
1773237393209108200,1.110108154296875,4.679999828338623,0.8090000152587891,7.863999843597412
1773237393219178800,1.1201787109375,3.997999906539917,0.3179999887943268,8.105999946594238
1773237393229249000,1.1302490234375,3.9600000381469727,-0.3610000014305115,8.531999588012695
1773237393239319300,1.1403193359375,3.556999921798706,-1.090999960899353,9.062000274658203
1773237393249389600,1.1503896484375,2.9040000438690186,-1.5390000343322754,9.543000221252441
1773237393259460000,1.160460205078125,2.5450000762939453,-1.5720000267028809,9.67199993133545
1773237393269530400,1.1705302734375,2.377000093460083,-1.2230000495910645,9.746000289916992
1773237393279600600,1.1806005859375,2.115999937057495,-0.5770000219345093,9.861000061035156
1773237393289671000,1.1906708984375,2.122999906539917,0.2919999957084656,9.645999908447266
1773237393299741400,1.200741455078125,2.2669999599456787,1.1770000457763672,9.121000289916992
1773237393309811700,1.210811767578125,2.6019999980926514,1.8739999532699585,8.89900016784668
1773237393319882000,1.220882080078125,3.0329999923706055,2.2360000610351562,8.675999641418457
1773237393329952300,1.2309521484375,3.6429998874664307,2.177999973297119,8.376999855041504
1773237393340022800,1.241022705078125,3.825000047683716,1.781000018119812,8.390999794006348
1773237393350093000,1.251093017578125,3.7869999408721924,1.3980000019073486,8.418000221252441
1773237393360163300,1.261163330078125,4.505000114440918,1.093999981880188,8.057999610900879
1773237393370233600,1.271233642578125,4.505000114440918,0.6480000019073486,8.123000144958496
1773237393380304000,1.281303955078125,3.828000068664551,-0.026000000536441803,8.579999923706055
1773237393390374400,1.29137451171875,3.490000009536743,-0.5139999985694885,8.954000473022461
1773237393400444700,1.301444580078125,3.4230000972747803,-0.7820000052452087,9.03499984741211
1773237393410515000,1.311514892578125,3.055000066757202,-1.121999979019165,9.164999961853027
1773237393420585200,1.321585205078125,2.5969998836517334,-1.4980000257492065,9.519000053405762
1773237393430655700,1.33165576171875,2.367000102996826,-1.7829999923706055,9.758000373840332
1773237393440726000,1.34172607421875,2.430000066757202,-1.7330000400543213,9.866000175476074
1773237393450796300,1.35179638671875,2.6500000953674316,-1.399999976158142,9.65999984741211
1773237393460866600,1.361866455078125,2.9230000972747803,-0.7919999957084656,9.121000289916992
1773237393470936800,1.371936767578125,3.6530001163482666,-0.13600000739097595,8.656999588012695
1773237393481007000,1.382007080078125,3.871000051498413,0.3319999873638153,8.371999740600586
1773237393491077600,1.39207763671875,4.1529998779296875,0.824999988079071,8.23799991607666
1773237393501148000,1.40214794921875,4.63700008392334,1.2589999437332153,8.057999610900879
1773237393511218200,1.41221826171875,4.646999835968018,1.440999984741211,7.800000190734863
1773237393521288700,1.422288818359375,4.454999923706055,1.3980000019073486,8.005999565124512
1773237393531359000,1.43235888671875,4.033999919891357,1.1649999618530273,8.29800033569336
1773237393541429200,1.44242919921875,3.828000068664551,0.8759999871253967,8.576000213623047
1773237393551499500,1.45249951171875,3.305999994277954,0.5809999704360962,8.937000274658203
1773237393561570000,1.462570068359375,3.0380001068115234,0.3059999942779541,9.21500015258789
1773237393571640300,1.472640380859375,2.743000030517578,0.05900000035762787,9.274999618530273
1773237393581710600,1.482710693359375,2.437000036239624,-0.026000000536441803,9.392000198364258
1773237393591781000,1.492781005859375,2.7890000343322754,0.23199999332427979,9.458999633789062
1773237393601851400,1.502851318359375,2.680999994277954,0.5289999842643738,9.069000244140625
1773237393611921700,1.512921630859375,3.2009999752044678,0.4970000088214874,8.8149995803833
1773237393621992200,1.5229921875,3.2799999713897705,0.054999999701976776,8.894000053405762
1773237393632062500,1.5330625,2.875,-0.6320000290870667,8.994999885559082
1773237393642132700,1.5431328125,3.2720000743865967,-1.0820000171661377,9.140999794006348
1773237393652203000,1.553203125,3.555000066757202,-1.218000054359436,9.152999877929688
1773237393662273500,1.5632734375,3.4639999866485596,-1.1419999599456787,8.92300033569336
1773237393672343800,1.57334375,3.0739998817443848,-0.7559999823570251,8.843999862670898
1773237393682414300,1.583414306640625,3.2239999771118164,-0.3179999887943268,8.805000305175781
1773237393692484600,1.593484619140625,3.312999963760376,0.023000000044703484,8.852999687194824
1773237393702555000,1.603554931640625,2.8369998931884766,0.21699999272823334,9.152999877929688
1773237393712625200,1.613625244140625,2.7170000076293945,0.36800000071525574,9.197999954223633
1773237393722695400,1.6236953125,2.640000104904175,0.5649999976158142,9.152999877929688
1773237393732766000,1.633765869140625,2.680999994277954,0.7080000042915344,9.119000434875488
1773237393742836200,1.643836181640625,2.6500000953674316,0.7350000143051147,9.184000015258789
1773237393752906500,1.653906494140625,2.7290000915527344,0.675000011920929,9.260000228881836
1773237393762977000,1.66397705078125,2.9519999027252197,0.5139999985694885,9.062000274658203
1773237393773047300,1.67404736328125,3.265000104904175,0.4690000116825104,9.095000267028809
1773237393783117600,1.68411767578125,3.308000087738037,0.3919999897480011,8.829000473022461
1773237393793187800,1.694187744140625,3.694000005722046,0.33899998664855957,8.524999618530273
1773237393803258400,1.70425830078125,3.681999921798706,0.10999999940395355,8.449000358581543
1773237393813328600,1.71432861328125,3.4709999561309814,-0.1860000044107437,8.654999732971191
1773237393823399000,1.72439892578125,3.750999927520752,-0.31299999356269836,8.937000274658203
1773237393833469400,1.734469482421875,3.5859999656677246,-0.34200000762939453,8.949000358581543
1773237393843539700,1.744539794921875,3.48799991607666,-0.3199999928474426,8.880000114440918
1773237393853610000,1.75460986328125,3.4210000038146973,-0.2750000059604645,8.913000106811523
1773237393863680300,1.76468017578125,2.76200008392334,-0.14800000190734863,8.949000358581543
1773237393873750800,1.774750732421875,3.627000093460083,-0.1120000034570694,9.095000267028809
1773237393883821000,1.784821044921875,2.743000030517578,-0.19599999487400055,9.017999649047852
1773237393893891300,1.794891357421875,3.0230000019073486,-0.08299999684095383,9.274999618530273
1773237393903961600,1.804961669921875,2.880000114440918,0.20999999344348907,9.112000465393066
1773237393914032000,1.8150322265625,3.5429999828338623,0.6510000228881836,8.793000221252441
1773237393924102400,1.825102294921875,3.375,0.8209999799728394,8.576000213623047
1773237393934173000,1.8351728515625,3.2750000953674316,0.8450000286102295,8.541999816894531
1773237393944243200,1.8452431640625,3.496999979019165,0.7250000238418579,8.821999549865723
1773237393954313500,1.8553134765625,3.563999891281128,0.5139999985694885,8.906000137329102
1773237393964384000,1.865384033203125,3.4260001182556152,0.11699999868869781,8.829000473022461
1773237393974454300,1.875454345703125,3.5429999828338623,-0.08799999952316284,8.901000022888184
1773237393984524500,1.885524658203125,3.063999891281128,-0.28200000524520874,8.741000175476074
1773237393994594800,1.8955947265625,3.177000045776367,-0.34700000286102295,9.069000244140625
1773237394004665300,1.905665283203125,2.7119998931884766,-0.3610000014305115,9.244000434875488
1773237394014735600,1.915735595703125,3.171999931335449,-0.2409999966621399,9.128999710083008
1773237394024806000,1.925805908203125,2.930000066757202,-0.16500000655651093,8.963000297546387
1773237394034876400,1.93587646484375,2.9800000190734863,-0.16200000047683716,9.001999855041504
1773237394044946700,1.94594677734375,2.4679999351501465,-0.11699999868869781,8.99899959564209
1773237394055017000,1.956016845703125,3.134000062942505,0.1379999965429306,9.208000183105469
1773237394065087200,1.966087158203125,2.697999954223633,0.2939999997615814,9.112000465393066
1773237394075157800,1.97615771484375,2.937000036239624,0.3709999918937683,9.345999717712402
1773237394085228000,1.98622802734375,2.638000011444092,0.3059999942779541,9.222000122070312
1773237394095298300,1.99629833984375,2.611999988555908,0.1860000044107437,9.001999855041504
1773237394105368800,2.006368896484375,2.9609999656677246,0.09300000220537186,9.265000343322754
1773237394115439000,2.016439208984375,3.322999954223633,-0.05000000074505806,9.20300006866455
1773237394125509400,2.02650927734375,3.186000108718872,-0.12600000202655792,8.78600025177002
1773237394135579600,2.03657958984375,4.005000114440918,0.1120000034570694,8.831999778747559
1773237394145650200,2.046650146484375,3.178999900817871,0.20999999344348907,8.541999816894531
1773237394155720400,2.056720458984375,3.7219998836517334,0.5910000205039978,8.772000312805176
1773237394165790700,2.066790771484375,3.9260001182556152,0.6869999766349792,8.468000411987305
1773237394175861200,2.076861328125,2.6689999103546143,0.5329999923706055,8.37399959564209
1773237394185931500,2.086931640625,3.9639999866485596,0.414000004529953,9.008999824523926
1773237394196001800,2.097001708984375,2.8489999771118164,-0.0860000029206276,8.86299991607666
1773237394206072000,2.107072021484375,3.3350000381469727,-0.2630000114440918,9.166999816894531
1773237394216142600,2.117142578125,2.8889999389648438,-0.41100001335144043,9.211999893188477
1773237394226212900,2.127212890625,2.9609999656677246,-0.34200000762939453,9.190999984741211
1773237394236283100,2.137283203125,3.871000051498413,-0.1120000034570694,9.190999984741211
1773237394246353700,2.147353759765625,2.3239998817443848,-0.13099999725818634,8.8149995803833
1773237394256424000,2.157423828125,4.01200008392334,0.3319999873638153,9.267000198364258
1773237394266494200,2.167494140625,3.0209999084472656,0.5210000276565552,8.548999786376953
1773237394276564700,2.177564697265625,3.4619998931884766,0.5529999732971191,8.607000350952148
1773237394286635000,2.187635009765625,4.291999816894531,0.5879999995231628,9.013999938964844
1773237394296705300,2.197705322265625,2.4700000286102295,0.17399999499320984,8.482000350952148
1773237394306775800,2.20777587890625,4.521999835968018,0.2630000114440918,8.807999610900879
1773237394316846000,2.21784619140625,2.9679999351501465,0.0689999982714653,8.376999855041504
1773237394326916400,2.227916259765625,4.236999988555908,-0.05000000074505806,8.548999786376953
1773237394336986600,2.237986572265625,3.822999954223633,-0.23399999737739563,8.795999526977539
1773237394347057200,2.24805712890625,3.203000068664551,-0.48100000619888306,8.588000297546387
1773237394357127400,2.25812744140625,4.446000099182129,-0.41600000858306885,9.116999626159668
1773237394367198000,2.268197998046875,2.7980000972747803,-0.414000004529953,9.187999725341797
1773237394377268200,2.278268310546875,3.5450000762939453,-0.020999999716877937,9.281999588012695
1773237394387338800,2.2883388671875,3.046999931335449,0.5070000290870667,8.888999938964844
1773237394397409000,2.298408935546875,3.1649999618530273,0.9879999756813049,8.548999786376953
1773237394407479300,2.308479248046875,3.746000051498413,1.2879999876022339,8.633000373840332
1773237394417549800,2.3185498046875,3.7750000953674316,0.9380000233650208,8.215999603271484
1773237394427620000,2.3286201171875,4.593999862670898,0.5979999899864197,8.366999626159668
1773237394437690400,2.3386904296875,4.435999870300293,-0.09000000357627869,8.336000442504883
1773237394447761000,2.348760986328125,4.367000102996826,-0.5720000267028809,8.414999961853027
1773237394457831200,2.3588310546875,4.809000015258789,-0.6150000095367432,8.559000015258789
1773237394467901400,2.3689013671875,4.335000038146973,-0.5360000133514404,8.407999992370605
1773237394477972000,2.378971923828125,4.386000156402588,-0.09300000220537186,8.611000061035156
1773237394488042200,2.389042236328125,3.9809999465942383,0.28200000524520874,8.47700023651123
1773237394498112500,2.399112548828125,3.822999954223633,0.7440000176429749,8.281000137329102
1773237394508183000,2.40918310546875,4.296999931335449,0.7919999957084656,8.282999992370605
1773237394518253300,2.41925341796875,3.5880000591278076,0.38499999046325684,8.369999885559082
1773237394528323600,2.429323486328125,4.276000022888184,-0.07900000363588333,8.829000473022461
1773237394538394000,2.43939404296875,3.3989999294281006,-0.6359999775886536,8.821999549865723
1773237394548464400,2.44946435546875,4.002999782562256,-0.6890000104904175,9.027999877929688
1773237394558534700,2.45953466796875,3.688999891281128,-0.6439999938011169,8.9350004196167
1773237394568605200,2.469605224609375,3.51200008392334,-0.3799999952316284,8.71399974822998
1773237394578675500,2.479675537109375,4.070000171661377,0.24799999594688416,8.645000457763672
1773237394588745700,2.489745849609375,4.0960001945495605,0.5690000057220459,8.220999717712402
1773237394598816000,2.49981591796875,4.168000221252441,0.828000009059906,8.26200008392334
1773237394608886500,2.509886474609375,4.126999855041504,0.8610000014305115,8.333999633789062
1773237394618956800,2.519956787109375,4.059999942779541,0.6890000104904175,8.607000350952148
1773237394629027300,2.53002734375,3.494999885559082,0.5979999899864197,8.904000282287598
1773237394639097600,2.54009765625,3.302999973297119,0.5210000276565552,8.85099983215332
1773237394649168000,2.55016796875,3.114000082015991,0.4659999907016754,8.956000328063965
1773237394659238400,2.56023828125,2.880000114440918,0.09000000357627869,9.059000015258789
1773237394669308700,2.57030859375,2.6519999504089355,-0.2800000011920929,9.175999641418457
1773237394679379000,2.58037890625,2.7980000972747803,-0.44200000166893005,9.390000343322754
1773237394689449500,2.590449462890625,2.994999885559082,-0.4569999873638153,9.161999702453613
1773237394699519700,2.600519775390625,3.371000051498413,-0.38499999046325684,8.894000053405762
1773237394709590300,2.61059033203125,3.9790000915527344,-0.09799999743700027,8.800999641418457
1773237394719660500,2.62066064453125,4.3520002365112305,0.08299999684095383,8.406000137329102
1773237394729730800,2.630730712890625,4.991000175476074,0.08100000023841858,8.074999809265137
1773237394739801300,2.64080126953125,4.999000072479248,-0.12600000202655792,7.916999816894531
1773237394749871600,2.65087158203125,5.158999919891357,-0.26499998569488525,7.951000213623047
1773237394759942000,2.66094189453125,5.171000003814697,-0.2290000021457672,8.053999900817871
1773237394770012400,2.671012451171875,5.383999824523926,-0.004000000189989805,7.965000152587891
1773237394780082700,2.681082763671875,4.999000072479248,0.45399999618530273,8.065999984741211
1773237394790153200,2.6911533203125,5.203999996185303,1.0049999952316284,7.84499979019165
1773237394800223500,2.701223388671875,5.511000156402588,1.503000020980835,7.793000221252441
1773237394810293800,2.711293701171875,5.583000183105469,1.593999981880188,7.642000198364258
1773237394820364300,2.7213642578125,5.2210001945495605,1.225000023841858,7.928999900817871
1773237394830434600,2.7314345703125,5.011000156402588,0.5289999842643738,8.125
1773237394840505000,2.741505126953125,4.751999855041504,-0.2199999988079071,8.395999908447266
1773237394850575400,2.751575439453125,4.623000144958496,-0.6480000019073486,8.517999649047852
1773237394860645600,2.761645751953125,4.8429999351501465,-0.8180000185966492,8.418000221252441
1773237394870716200,2.771716064453125,4.823999881744385,-0.765999972820282,8.531999588012695
1773237394880786400,2.781786376953125,4.861999988555908,-0.5720000267028809,8.07800006866455
1773237394890857000,2.79185693359375,5.002999782562256,-0.29600000381469727,8.015000343322754
1773237394900927200,2.80192724609375,4.709000110626221,-0.15299999713897705,7.8480000495910645
1773237394910997500,2.81199755859375,4.270999908447266,-0.07900000363588333,8.336000442504883
1773237394921068000,2.822068115234375,4.140999794006348,-0.01600000075995922,8.52299976348877
1773237394931138300,2.83213818359375,3.4639999866485596,0.10000000149011612,8.697999954223633
1773237394941208800,2.842208740234375,3.3510000705718994,0.4090000092983246,8.633000373840332
1773237394951279000,2.852279052734375,3.742000102996826,0.777999997138977,8.564000129699707
1773237394961349400,2.862349365234375,4.163000106811523,0.9139999747276306,8.26200008392334
1773237394971419600,2.872419677734375,4.589000225067139,0.44999998807907104,8.295000076293945
1773237394981490200,2.882490234375,4.431000232696533,-0.004000000189989805,8.39799976348877
1773237394991560400,2.892560546875,4.409999847412109,-0.15000000596046448,8.425000190734863
1773237395001630700,2.902630615234375,4.716000080108643,0.01600000075995922,8.282999992370605
1773237395011701200,2.912701171875,4.623000144958496,0.35600000619888306,8.258999824523926
1773237395021771500,2.922771484375,4.326000213623047,0.4259999990463257,8.414999961853027
1773237395031841800,2.932841796875,3.9119999408721924,0.4350000023841858,8.321999549865723
1773237395041912000,2.942912109375,4.249000072479248,0.33000001311302185,8.520000457763672
1773237395051982600,2.952982666015625,3.9619998931884766,0.1459999978542328,8.753000259399414
1773237395062052900,2.963052978515625,4.061999797821045,-0.0860000029206276,8.956000328063965
1773237395072123400,2.973123291015625,3.688999891281128,-0.023000000044703484,8.77400016784668
1773237395082193700,2.983193603515625,4.309000015258789,0.3009999990463257,8.420000076293945
1773237395092264000,2.993263916015625,4.605999946594238,0.5210000276565552,8.3149995803833
1773237395102334500,3.00333447265625,3.6459999084472656,0.3319999873638153,8.1899995803833
1773237395112404700,3.01340478515625,5.474999904632568,0.2150000035762787,8.42199993133545
1773237395122475000,3.02347509765625,4.203999996185303,0.04500000178813934,8.215999603271484
1773237395132545500,3.033545654296875,5.199999809265137,-0.014000000432133675,8.041999816894531
1773237395142615800,3.04361572265625,4.85699987411499,0.03099999949336052,8.034000396728516
1773237395152686000,3.05368603515625,4.144000053405762,0.07900000363588333,8.1850004196167
1773237395162756400,3.06375634765625,4.052999973297119,0.3160000145435333,7.940999984741211
1773237395172827000,3.073826904296875,3.805999994277954,0.28700000047683716,8.156999588012695
1773237395182897200,3.083897216796875,3.180999994277954,-0.0860000029206276,9.184000015258789
1773237395192967700,3.0939677734375,2.6089999675750732,-0.5740000009536743,9.581000328063965
1773237395203038000,3.104037841796875,2.8959999084472656,-0.8930000066757202,9.677000045776367
1773237395213108500,3.1141083984375,3.2009999752044678,-0.9760000109672546,9.670000076293945
1773237395223178800,3.1241787109375,2.2839999198913574,-0.777999997138977,9.07800006866455
1773237395233249300,3.134249267578125,4.9079999923706055,-0.10999999940395355,9.258000373840332
1773237395243319600,3.144319580078125,3.13100004196167,0.47099998593330383,8.11299991607666
1773237395253389800,3.154389892578125,4.160999774932861,1.1749999523162842,8.168999671936035
1773237395263460400,3.16446044921875,3.7699999809265137,1.3140000104904175,7.9629998207092285
1773237395273530600,3.174530517578125,3.9189999103546143,1.312000036239624,8.321999549865723
1773237395283601000,3.184600830078125,4.25600004196167,0.9259999990463257,8.753000259399414
1773237395293671400,3.19467138671875,3.624000072479248,0.23199999332427979,8.333999633789062
1773237395303741700,3.20474169921875,4.388000011444092,0.23199999332427979,9.093000411987305
1773237395313812000,3.21481201171875,3.51200008392334,-0.25600001215934753,8.925000190734863
1773237395323882500,3.224882568359375,3.6630001068115234,-0.4950000047683716,8.996999740600586
1773237395333952800,3.234952880859375,2.9179999828338623,-0.3199999928474426,9.284000396728516
1773237395344023000,3.24502294921875,1.9320000410079956,0.04500000178813934,9.208000183105469
1773237395354093600,3.255093505859375,3.2799999713897705,0.5189999938011169,9.04699993133545
1773237395364163800,3.265163818359375,2.312000036239624,0.6629999876022339,9.064000129699707
1773237395374234400,3.275234375,2.75,0.4020000100135803,9.4350004196167
1773237395384304600,3.2853046875,3.0829999446868896,0.12399999797344208,9.378000259399414
1773237395394375000,3.295375,2.9830000400543213,-0.29600000381469727,8.803000450134277
1773237395404445400,3.305445556640625,3.6530001163482666,-0.4740000069141388,9.208000183105469
1773237395414515700,3.315515625,2.496999979019165,-0.8330000042915344,9.236000061035156
1773237395424586200,3.325586181640625,2.3980000019073486,-0.5879999995231628,9.42300033569336
1773237395434656500,3.335656494140625,2.990000009536743,-0.09300000220537186,9.064000129699707
1773237395444726800,3.345726806640625,3.071000099182129,0.34700000286102295,9.026000022888184
1773237395454797000,3.355797119140625,2.6040000915527344,0.43799999356269836,8.991999626159668
1773237395464867600,3.36586767578125,2.9800000190734863,0.43799999356269836,9.234000205993652
1773237395474937900,3.375937744140625,2.930000066757202,0.656000018119812,9.02299976348877
1773237395485008400,3.38600830078125,3.9019999504089355,0.5789999961853027,8.640000343322754
1773237395495078700,3.39607861328125,3.2149999141693115,-0.03500000014901161,8.906000137329102
1773237395505149200,3.406149169921875,2.941999912261963,-0.3490000069141388,8.894000053405762
1773237395515219500,3.416219482421875,3.382999897003174,-0.03999999910593033,8.755000114440918
1773237395525290000,3.4262900390625,4.625,0.15800000727176666,8.704999923706055
1773237395535360300,3.4363603515625,3.3589999675750732,-0.07100000232458115,9.081000328063965
1773237395545430500,3.446430419921875,2.927999973297119,-0.05000000074505806,9.385000228881836
1773237395555501000,3.4565009765625,2.9230000972747803,0.2630000114440918,8.847999572753906
1773237395565571300,3.4665712890625,3.124000072479248,0.5879999995231628,8.78600025177002
1773237395575641600,3.4766416015625,2.8010001182556152,0.44200000166893005,9.020999908447266
1773237395585712000,3.486712158203125,1.9509999752044678,0.1340000033378601,9.489999771118164
1773237395595782400,3.496782470703125,2.9519999027252197,0.22499999403953552,9.380000114440918
1773237395605853000,3.50685302734375,2.5969998836517334,0.4230000078678131,8.8149995803833
1773237395615923200,3.516923095703125,3.805999994277954,0.21299999952316284,8.85099983215332
1773237395625993700,3.52699365234375,3.3369998931884766,-0.1550000011920929,9.368000030517578
1773237395636064000,3.53706396484375,2.625999927520752,-0.382999986410141,9.196000099182129
1773237395646134300,3.54713427734375,3.5260000228881836,0.05900000035762787,8.756999969482422
1773237395656204800,3.557204833984375,2.9159998893737793,0.32499998807907104,8.543999671936035
1773237395666275000,3.567275146484375,3.4570000171661377,0.22200000286102295,9.062000274658203
1773237395676345300,3.577345458984375,2.8340001106262207,-0.1809999942779541,8.840999603271484
1773237395686416000,3.587415771484375,2.315000057220459,0.03099999949336052,9.279000282287598
1773237395696486100,3.597486083984375,3.7130000591278076,0.04699999839067459,9.211999893188477
1773237395706556700,3.607556640625,2.369999885559082,-0.10700000077486038,8.925000190734863
1773237395716627000,3.617626953125,4.014999866485596,-0.2409999966621399,9.277000427246094
1773237395726697200,3.627697265625,2.4079999923706055,-0.6029999852180481,9.298999786376953
1773237395736767700,3.637767822265625,2.6070001125335693,-0.2750000059604645,9.458999633789062
1773237395746838000,3.647838134765625,3.365999937057495,0.4659999907016754,9.161999702453613
1773237395756908300,3.657908203125,2.546999931335449,1.0980000495910645,8.539999961853027
1773237395766978800,3.667978759765625,3.677000045776367,1.059999942779541,8.49899959564209
1773237395777049000,3.678049072265625,2.0850000381469727,0.6050000190734863,8.881999969482422
1773237395787119600,3.68811962890625,2.9040000438690186,0.13600000739097595,9.223999977111816
1773237395797190000,3.69818994140625,2.927999973297119,0.08100000023841858,9.15999984741211
1773237395807260200,3.70826025390625,3.0160000324249268,-0.11699999868869781,8.685999870300293
1773237395817330400,3.718330322265625,4.126999855041504,-0.2939999997615814,9.149999618530273
1773237395827401000,3.72840087890625,2.700000047683716,-0.640999972820282,9.260000228881836
1773237395837471200,3.73847119140625,3.5810000896453857,-0.26499998569488525,9.319999694824219
1773237395847541800,3.748541748046875,3.5429999828338623,0.23399999737739563,8.71399974822998
1773237395857612000,3.758612060546875,2.9059998989105225,0.6050000190734863,8.881999969482422
1773237395867682300,3.768682373046875,3.382999897003174,0.6480000019073486,8.836000442504883
1773237395877752800,3.7787529296875,2.371999979019165,0.5450000166893005,9.053999900817871
1773237395887823000,3.788822998046875,2.571000099182129,0.5619999766349792,9.088000297546387
1773237395897893400,3.798893310546875,2.9519999027252197,0.12600000202655792,9.149999618530273
1773237395907964000,3.8089638671875,2.434000015258789,-0.24400000274181366,9.284000396728516
1773237395918034200,3.8190341796875,2.6710000038146973,-0.5019999742507935,8.937000274658203
1773237395928104700,3.829104736328125,2.4149999618530273,-0.6150000095367432,8.918000221252441
1773237395938175000,3.839175048828125,3.635999917984009,-0.6480000019073486,9.420999526977539
1773237395948245200,3.849245361328125,3.380000114440918,-0.6650000214576721,9.265000343322754
1773237395958315800,3.859315673828125,2.7860000133514404,-0.3869999945163727,8.89900016784668
1773237395968386000,3.869385986328125,3.8489999771118164,0.23399999737739563,9.17199993133545
1773237395978456300,3.879456298828125,2.9130001068115234,0.640999972820282,8.432000160217285
1773237395988526800,3.88952685546875,3.078000068664551,0.8090000152587891,8.760000228881836
1773237395998597000,3.89959716796875,2.2360000610351562,0.8090000152587891,9.293999671936035
1773237396008667600,3.909667724609375,2.2360000610351562,0.6890000104904175,9.38700008392334
1773237396018738000,3.919738037109375,2.49399995803833,0.6650000214576721,9.557000160217285
1773237396028808200,3.92980810546875,1.6610000133514404,0.2199999988079071,9.229000091552734
1773237396038878700,3.939878662109375,2.5209999084472656,-0.1550000011920929,9.968999862670898
1773237396048949000,3.949948974609375,1.4459999799728394,-0.5070000290870667,9.835000038146973
1773237396059019500,3.96001953125,1.8240000009536743,-0.3230000138282776,9.913999557495117
1773237396069089800,3.97008984375,2.1040000915527344,0.18400000035762787,9.164999961853027
1773237396079160000,3.98016015625,2.5999999046325684,0.33500000834465027,8.944000244140625
1773237396089230600,3.990230712890625,2.61899995803833,0.3919999897480011,9.272000312805176
1773237396099300900,4.00030078125,2.3310000896453857,0.23899999260902405,8.982999801635742
1773237396109371100,4.01037109375,3.3320000171661377,0.33899998664855957,8.880000114440918
1773237396119441700,4.020441650390625,3.188999891281128,0.16200000047683716,8.871999740600586
1773237396129512000,4.030511962890625,2.941999912261963,-0.1770000010728836,9.137999534606934
1773237396139582500,4.04058251953125,2.5399999618530273,-0.3370000123977661,9.154999732971191
1773237396149652700,4.05065283203125,2.434000015258789,-0.5720000267028809,9.25100040435791
1773237396159723300,4.06072314453125,2.309999942779541,-0.5139999985694885,9.652999877929688
1773237396169793500,4.07079345703125,1.8980000019073486,-0.640999972820282,9.690999984741211
1773237396179863800,4.08086376953125,1.9579999446868896,-0.46399998664855957,9.734000205993652
1773237396189934300,4.090934326171875,1.8140000104904175,-0.14100000262260437,9.638999938964844
1773237396200004600,4.101004638671875,2.190000057220459,0.375,9.260000228881836
1773237396210075100,4.1110751953125,2.8340001106262207,0.6290000081062317,9.026000022888184
1773237396220145400,4.1211455078125,2.7190001010894775,0.6119999885559082,9.01099967956543
1773237396230216000,4.1312158203125,2.880000114440918,0.5600000023841858,8.965999603271484
1773237396240286200,4.1412861328125,3.0859999656677246,0.6029999852180481,8.795999526977539
1773237396250356500,4.1513564453125,3.444999933242798,0.6439999938011169,8.607000350952148
1773237396260427000,4.161427001953125,3.0929999351501465,0.44699999690055847,8.819999694824219
1773237396270497300,4.171497314453125,2.4800000190734863,0.14300000667572021,9.052000045776367
1773237396280567800,4.18156787109375,2.434000015258789,0.20499999821186066,9.32699966430664
1773237396290638000,4.19163818359375,2.1610000133514404,0.23199999332427979,9.17199993133545
1773237396300708600,4.20170849609375,2.0989999771118164,0.21699999272823334,9.394000053405762
1773237396310779000,4.21177880859375,1.2209999561309814,0.10499999672174454,9.633999824523926
1773237396320849200,4.22184912109375,1.0670000314712524,0.10199999809265137,10.175000190734863
1773237396330919400,4.23191943359375,0.671999990940094,-0.0020000000949949026,10.739999771118164
1773237396340990000,4.241989990234375,-0.4659999907016754,0.01899999938905239,10.366000175476074
1773237396351060200,4.252060302734375,-0.05000000074505806,0.42100000381469727,10.437999725341797
1773237396361130800,4.262130859375,0.01899999938905239,0.4880000054836273,10.241999626159668
1773237396371201000,4.272200927734375,1.0579999685287476,0.3199999928474426,10.164999961853027
1773237396381271600,4.282271484375,1.315999984741211,-0.4230000078678131,9.892000198364258
1773237396391341800,4.292341796875,1.3880000114440918,-1.2730000019073486,9.859000205993652
1773237396401412000,4.302412109375,2.4700000286102295,-1.4529999494552612,9.468999862670898
1773237396411482600,4.312482666015625,2.6570000648498535,-1.1699999570846558,9.10200023651123
1773237396421553000,4.322552978515625,3.681999921798706,-0.8640000224113464,8.875
1773237396431623400,4.33262353515625,2.743000030517578,-0.33000001311302185,9.017999649047852
1773237396441693700,4.342693603515625,2.6689999103546143,0.2770000100135803,9.065999984741211
1773237396451764200,4.35276416015625,2.061000108718872,1.1100000143051147,8.944000244140625
1773237396461834500,4.36283447265625,2.128000020980835,1.6710000038146973,9.104999542236328
1773237396471904800,4.37290478515625,1.7280000448226929,1.6749999523162842,9.986000061035156
1773237396481975300,4.382975341796875,0.8640000224113464,1.0509999990463257,10.371000289916992
1773237396492045600,4.393045654296875,1.1339999437332153,0.5120000243186951,10.611000061035156
1773237396502115800,4.40311572265625,0.6320000290870667,0.07900000363588333,9.928000450134277
1773237396512186400,4.413186279296875,1.36899995803833,0.04500000178813934,9.842000007629395
1773237396522256600,4.423256591796875,2.114000082015991,0.03500000014901161,9.262999534606934
1773237396532327200,4.4333271484375,2.5950000286102295,-0.11400000005960464,8.956000328063965
1773237396542397400,4.4433974609375,3.9159998893737793,0.054999999701976776,8.836000442504883
1773237396552467700,4.4534677734375,3.9670000076293945,0.257999986410141,8.276000022888184
1773237396562538200,4.463538330078125,5.26200008392334,0.5019999742507935,8.034000396728516
1773237396572608500,4.4736083984375,5.105999946594238,0.5479999780654907,7.638999938964844
1773237396582679000,4.483678955078125,4.895999908447266,0.22499999403953552,7.8520002365112305
1773237396592749300,4.493749267578125,5.002999782562256,-0.3970000147819519,8.3149995803833
1773237396602819800,4.50381982421875,2.496999979019165,-1.215999960899353,8.661999702453613
1773237396612890000,4.51389013671875,3.384999990463257,-1.7740000486373901,9.550000190734863
1773237396622960400,4.52396044921875,1.9800000190734863,-2.0439999103546143,9.980999946594238
1773237396633031000,4.534031005859375,2.062999963760376,-2.000999927520752,9.854000091552734
1773237396643101200,4.54410107421875,2.2690000534057617,-1.1799999475479126,10.194000244140625
1773237396653171700,4.554171630859375,2.621000051498413,-0.2750000059604645,9.442000389099121
1773237396663242000,4.564241943359375,3.628999948501587,0.8899999856948853,8.876999855041504
1773237396673312300,4.574312255859375,3.75600004196167,1.7860000133514404,8.37399959564209
1773237396683382800,4.5843828125,4.742000102996826,2.2309999465942383,8.053999900817871
1773237396693453000,4.594453125,4.426000118255615,2.365000009536743,7.5289998054504395
1773237396703523600,4.604523681640625,4.386000156402588,2.0369999408721924,8.111000061035156
1773237396713593900,4.61459375,4.525000095367432,1.430999994277954,8.305000305175781
1773237396723664100,4.6246640625,3.624000072479248,0.968999981880188,8.220999717712402
1773237396733734700,4.634734619140625,3.933000087738037,0.6600000262260437,8.847999572753906
1773237396743805000,4.644804931640625,3.390000104904175,0.35899999737739563,8.881999969482422
1773237396753875500,4.65487548828125,4.005000114440918,0.32499998807907104,9.236000061035156
1773237396763945700,4.66494580078125,3.6630001068115234,0.02800000086426735,8.777000427246094
1773237396774016300,4.675016357421875,3.38700008392334,-0.20100000500679016,8.343000411987305
1773237396784086500,4.68508642578125,4.182000160217285,-0.07900000363588333,8.517999649047852
1773237396794157000,4.695156982421875,4.533999919891357,-0.21299999952316284,8.32699966430664
1773237396804227300,4.705227294921875,5.216000080108643,-0.3869999945163727,8.362000465393066
1773237396814297600,4.715297607421875,5.184999942779541,-0.7250000238418579,8.336000442504883
1773237396824367900,4.725367919921875,4.5289998054504395,-0.9670000076293945,8.194999694824219
1773237396834438400,4.7354384765625,5.192999839782715,-0.8180000185966492,8.194999694824219
1773237396844508700,4.7455087890625,4.540999889373779,-0.6769999861717224,8.449000358581543
1773237396854579200,4.7555791015625,5.353000164031982,-0.4690000116825104,8.163999557495117
1773237396864649500,4.7656494140625,4.732999801635742,-0.3970000147819519,7.800000190734863
1773237396874720000,4.775719970703125,4.7230000495910645,-0.37299999594688416,8.47700023651123
1773237396884790300,4.785790283203125,4.500999927520752,-0.30799999833106995,8.406000137329102
1773237396894860800,4.79586083984375,4.658999919891357,-0.01600000075995922,8.109000205993652
1773237396904931000,4.80593115234375,4.544000148773193,0.1379999965429306,8.46500015258789
1773237396915001300,4.81600146484375,3.8489999771118164,0.38499999046325684,8.303000450134277
1773237396925071600,4.826071533203125,4.710999965667725,0.6940000057220459,8.163999557495117
1773237396935142100,4.83614208984375,4.4019999504089355,0.8489999771118164,8.116000175476074
1773237396945212400,4.84621240234375,5.302999973297119,0.8970000147819519,8.060999870300293
1773237396955283000,4.856282958984375,6.173999786376953,0.9070000052452087,7.96999979019165
1773237396965353200,4.866353271484375,5.876999855041504,0.8539999723434448,7.551000118255615
1773237396975423500,4.876423583984375,7.058000087738037,0.9380000233650208,7.2129998207092285
1773237396985494000,4.886493896484375,6.335000038146973,0.824999988079071,7.043000221252441
1773237396995564300,4.896564208984375,6.298999786376953,0.6650000214576721,7.261000156402588
1773237397005634600,4.906634521484375,5.901000022888184,0.3490000069141388,7.668000221252441
1773237397015705000,4.916705078125,4.619999885559082,0.05900000035762787,8.28600025177002
1773237397025775400,4.926775390625,4.38100004196167,-0.09799999743700027,8.769000053405762
1773237397035846000,4.936845947265625,3.1429998874664307,-0.16699999570846558,8.920000076293945
1773237397045916200,4.946916259765625,3.13100004196167,-0.22699999809265137,8.869999885559082
1773237397055986700,4.956986572265625,2.9040000438690186,-0.5,9.140999794006348
1773237397066057000,4.967056884765625,2.884999990463257,-0.4620000123977661,9.286999702453613
1773237397076127500,4.97712744140625,4.205999851226807,-0.3009999990463257,8.857999801635742
1773237397086197800,4.98719775390625,4.751999855041504,-0.023000000044703484,8.041999816894531
1773237397096268300,4.997268310546875,6.065999984741211,0.30399999022483826,7.39300012588501
1773237397106338600,5.007338623046875,6.375,0.41100001335144043,6.803999900817871
1773237397116408800,5.017408935546875,6.9070000648498535,0.5720000267028809,6.803999900817871
1773237397126479400,5.027479248046875,6.75600004196167,0.7699999809265137,6.815999984741211
1773237397136549600,5.037549560546875,6.675000190734863,0.8569999933242798,6.896999835968018
1773237397146620000,5.047619873046875,5.650000095367432,0.6050000190734863,7.370999813079834
1773237397156690400,5.0576904296875,4.374000072479248,-0.16899999976158142,8.11299991607666
1773237397166760700,5.0677607421875,3.052000045776367,-0.8230000138282776,9.199999809265137
1773237397176831200,5.077831298828125,2.132999897003174,-1.465000033378601,9.732000350952148
1773237397186901500,5.087901611328125,1.8569999933242798,-1.812000036239624,10.418999671936035
1773237397196972000,5.097971923828125,1.944000005722046,-1.6160000562667847,10.880999565124512
1773237397207042300,5.108042236328125,2.128000020980835,-0.8830000162124634,10.13700008392334
1773237397217112600,5.118112548828125,3.2269999980926514,0.10000000149011612,9.097000122070312
1773237397227183000,5.12818310546875,3.8010001182556152,0.8690000176429749,8.420000076293945
1773237397237253400,5.13825341796875,4.500999927520752,1.1390000581741333,7.671000003814697
1773237397247323600,5.14832373046875,5.4629998207092285,1.5989999771118164,7.488999843597412
1773237397257394200,5.158394287109375,5.671000003814697,1.9529999494552612,7.284999847412109
1773237397267464400,5.16846435546875,6.440000057220459,1.8450000286102295,7.326000213623047
1773237397277535000,5.178534912109375,5.013000011444092,1.5369999408721924,7.635000228881836
1773237397287605200,5.188605224609375,5.465000152587891,1.3229999542236328,8.170999526977539
1773237397297675500,5.198675537109375,3.193000078201294,0.5910000205039978,8.135000228881836
1773237397307746000,5.20874609375,3.311000108718872,0.21299999952316284,9.166999816894531
1773237397317816300,5.21881640625,2.4130001068115234,-0.23199999332427979,9.480999946594238
1773237397327886800,5.228886962890625,2.367000102996826,-0.5960000157356262,9.64799976348877
1773237397337957000,5.23895703125,2.375,-0.8709999918937683,10.418999671936035
1773237397348027600,5.249027587890625,2.0179998874664307,-0.9860000014305115,9.755999565124512
1773237397358098000,5.259097900390625,3.2360000610351562,-0.5860000252723694,9.48799991607666
1773237397368168400,5.26916845703125,2.5880000591278076,-0.2630000114440918,8.958999633789062
1773237397378238700,5.27923876953125,4.189000129699707,0.12600000202655792,8.527999877929688
1773237397388309000,5.28930908203125,3.933000087738037,0.1550000011920929,8.293000221252441
1773237397398379300,5.299379150390625,4.307000160217285,0.06199999898672104,8.145000457763672
1773237397408449800,5.30944970703125,4.795000076293945,-0.1120000034570694,8.29800033569336
1773237397418520000,5.31952001953125,4.468999862670898,-0.36800000071525574,8.236000061035156
1773237397428590600,5.329590576171875,4.145999908447266,-0.5289999842643738,8.215999603271484
1773237397438660900,5.339660888671875,4.061999797821045,-0.28700000047683716,8.760000228881836
1773237397448731400,5.3497314453125,3.450000047683716,-0.0020000000949949026,8.369999885559082
1773237397458801700,5.3598017578125,4.054999828338623,0.21299999952316284,8.894000053405762
1773237397468872200,5.3698720703125,2.7720000743865967,0.3160000145435333,9.425000190734863
1773237397478942500,5.3799423828125,2.927999973297119,0.5070000290870667,9.345999717712402
1773237397489013000,5.390012939453125,2.86299991607666,0.8949999809265137,9.02299976348877
1773237397499083300,5.400083251953125,2.6689999103546143,1.0980000495910645,8.875
1773237397509153500,5.410153564453125,2.7909998893737793,1.0549999475479126,8.859999656677246
1773237397519224000,5.42022412109375,3.322999954223633,0.5979999899864197,8.965999603271484
1773237397529294300,5.43029443359375,3.046999931335449,0.2370000034570694,8.888999938964844
1773237397539364600,5.440364501953125,3.688999891281128,0.026000000536441803,8.619000434875488
1773237397549435100,5.45043505859375,4.13700008392334,0.03999999910593033,8.10099983215332
1773237397559505700,5.460505615234375,3.9260001182556152,0.01600000075995922,8.256999969482422
1773237397569576000,5.470575927734375,5.339000225067139,-0.07599999755620956,8.005999565124512
1773237397579646200,5.480646240234375,4.544000148773193,-0.33899998664855957,8.152000427246094
1773237397589716700,5.490716796875,4.644000053405762,-0.4350000023841858,8.710000038146973
1773237397599787000,5.500787109375,4.191999912261963,-0.15800000727176666,8.812999725341797
1773237397609857500,5.510857421875,3.609999895095825,0.05000000074505806,8.086999893188477
1773237397619927800,5.520927734375,3.9140000343322754,-0.0020000000949949026,8.446000099182129
1773237397629998000,5.530998046875,2.069999933242798,-0.4569999873638153,9.217000007629395
1773237397640068600,5.541068603515625,2.4179999828338623,-0.6320000290870667,9.758000373840332
1773237397650139000,5.551138916015625,2.50600004196167,-0.3009999990463257,9.392000198364258
1773237397660209400,5.56120947265625,2.678999900817871,0.06400000303983688,9.317999839782715
1773237397670279700,5.57127978515625,3.135999917984009,0.2630000114440918,8.86299991607666
1773237397680350200,5.58135009765625,3.556999921798706,0.15800000727176666,8.706999778747559
1773237397690420500,5.59142041015625,3.74399995803833,0.14800000190734863,9.038000106811523
1773237397700490800,5.60149072265625,4.093999862670898,0.16699999570846558,8.609000205993652
1773237397710561300,5.611561279296875,4.307000160217285,0.5090000033378601,8.359999656677246
1773237397720631600,5.621631591796875,4.370999813079834,0.7350000143051147,8.390999794006348
1773237397730702000,5.6317021484375,3.9119999408721924,0.7509999871253967,8.194999694824219
1773237397740772400,5.6417724609375,4.085999965667725,0.7559999823570251,8.475000381469727
1773237397750843000,5.6518427734375,2.9779999256134033,0.5619999766349792,8.668999671936035
1773237397760913200,5.6619130859375,2.7669999599456787,0.29899999499320984,8.994999885559082
1773237397770983400,5.6719833984375,2.6570000648498535,0.09000000357627869,8.984999656677246
1773237397781054000,5.682053955078125,2.86299991607666,-0.28700000047683716,9.329999923706055
1773237397791124500,5.69212451171875,2.3410000801086426,-0.5429999828338623,10.001999855041504
1773237397801194800,5.70219482421875,2.75,-0.4350000023841858,9.638999938964844
1773237397811265300,5.712265380859375,3.549999952316284,0.0430000014603138,8.836000442504883
1773237397821335600,5.72233544921875,3.0280001163482666,0.3659999966621399,8.791000366210938
1773237397831405800,5.73240576171875,2.8010001182556152,0.4779999852180481,8.977999687194824
1773237397841476400,5.742476318359375,4.1529998779296875,0.48100000619888306,8.791000366210938
1773237397851546600,5.752546630859375,3.1670000553131104,0.25099998712539673,8.864999771118164
1773237397861617000,5.762616943359375,3.678999900817871,-0.06400000303983688,8.901000022888184
1773237397871687400,5.7726875,3.3589999675750732,-0.14800000190734863,8.579999923706055
1773237397881757700,5.7827578125,3.247999906539917,-0.17399999499320984,8.524999618530273
1773237397891828000,5.792827880859375,3.1689999103546143,-0.16699999570846558,8.970999717712402
1773237397901898500,5.8028984375,2.5179998874664307,-0.12600000202655792,9.406000137329102
1773237397911968800,5.81296875,2.9730000495910645,0.0949999988079071,9.418000221252441
1773237397922039300,5.823039306640625,2.8559999465942383,0.3490000069141388,9.25100040435791
1773237397932109600,5.833109619140625,2.4679999351501465,0.43799999356269836,9.416000366210938
1773237397942180000,5.84318017578125,2.7769999504089355,0.382999986410141,9.187999725341797
1773237397952250400,5.85325048828125,2.640000104904175,0.09300000220537186,9.112000465393066
1773237397962320600,5.863320556640625,2.072999954223633,-0.33500000834465027,9.303000450134277
1773237397972391200,5.87339111328125,2.4579999446868896,-0.33500000834465027,9.765000343322754
1773237397982461400,5.88346142578125,2.50600004196167,0.1340000033378601,9.366000175476074
1773237397992532000,5.893531982421875,3.739000082015991,0.6200000047683716,8.970999717712402
1773237398002602200,5.903602294921875,3.003999948501587,0.7009999752044678,8.548999786376953
1773237398012672800,5.9136728515625,3.121999979019165,0.4860000014305115,8.609000205993652
1773237398022743000,5.923742919921875,3.0260000228881836,0.25099998712539673,8.920000076293945
1773237398032813600,5.9338134765625,2.7290000915527344,-0.13099999725818634,8.904000282287598
1773237398042883800,5.9438837890625,3.1019999980926514,-0.4300000071525574,9.345999717712402
1773237398052954400,5.953954345703125,2.2880001068115234,-0.4779999852180481,9.420999526977539
1773237398063024600,5.964024658203125,2.875,-0.23399999737739563,9.380000114440918
1773237398073095000,5.974094970703125,2.4030001163482666,0.05000000074505806,9.109000205993652
1773237398083165400,5.98416552734375,2.2049999237060547,0.29899999499320984,9.020999908447266
1773237398093235700,5.994235595703125,2.808000087738037,0.3370000123977661,9.104999542236328
1773237398103306000,6.004305908203125,2.1040000915527344,0.289000004529953,9.319999694824219
1773237398113376500,6.01437646484375,2.38700008392334,0.1599999964237213,9.319999694824219
1773237398123446800,6.02444677734375,2.4679999351501465,-0.032999999821186066,9.166999816894531
1773237398133517000,6.03451708984375,3.1480000019073486,0.05000000074505806,9.571999549865723
1773237398143587600,6.044587646484375,2.2909998893737793,0.06199999898672104,9.185999870300293
1773237398153657900,6.054657958984375,3.2079999446868896,0.25999999046325684,9.130999565124512
1773237398163728400,6.064728271484375,1.9600000381469727,0.4880000054836273,9.097000122070312
1773237398173798700,6.074798583984375,1.7400000095367432,0.5669999718666077,9.057000160217285
1773237398183869200,6.084869140625,2.5179998874664307,0.3109999895095825,9.545000076293945
1773237398193939500,6.094939453125,1.2949999570846558,-0.2290000021457672,10.043000221252441
1773237398204009700,6.105009765625,0.33000001311302185,-0.2460000067949295,10.057999610900879
1773237398214080300,6.115080322265625,1.0980000495910645,0.11699999868869781,9.777000427246094
1773237398224150800,6.12515087890625,1.1269999742507935,0.1550000011920929,9.822999954223633
1773237398234221000,6.135220947265625,0.42800000309944153,-0.3709999918937683,10.425999641418457
1773237398244291300,6.145291259765625,-0.9190000295639038,-0.5910000205039978,10.720999717712402
1773237398254361900,6.15536181640625,-0.15000000596046448,-0.3160000145435333,10.668000221252441
1773237398264432000,6.16543212890625,0.15299999713897705,-0.10199999809265137,10.321000099182129
1773237398274502700,6.175502685546875,-0.5170000195503235,-0.10499999672174454,10.479000091552734
1773237398284573000,6.185572998046875,-0.6579999923706055,-0.1459999978542328,10.67300033569336
1773237398294643200,6.195643310546875,-0.9449999928474426,-0.0020000000949949026,10.663000106811523
1773237398304713700,6.205713623046875,-0.1720000058412552,0.1720000058412552,10.699000358581543
1773237398314784000,6.215783935546875,-1.246999979019165,0.27000001072883606,10.718000411987305
1773237398324854500,6.2258544921875,-2.130000114440918,0.2720000147819519,10.630000114440918
1773237398334924800,6.2359248046875,-1.3860000371932983,0.2199999988079071,11.154000282287598
1773237398344995300,6.245995361328125,-2.496999979019165,-0.10199999809265137,11.366999626159668
1773237398355065600,6.256065673828125,-3.0380001068115234,-0.42800000309944153,11.901000022888184
1773237398365136000,6.266135986328125,-2.9590001106262207,-0.7609999775886536,12.137999534606934
1773237398375206400,6.276206298828125,-1.6629999876022339,-0.550000011920929,12.065999984741211
1773237398385276700,6.286276611328125,0.014000000432133675,-0.4880000054836273,11.180000305175781
1773237398395347200,6.29634716796875,0.2529999911785126,-0.1550000011920929,10.102999687194824
1773237398405417500,6.30641748046875,2.614000082015991,0.44699999690055847,8.876999855041504
1773237398415488000,6.316488037109375,4.714000225067139,1.0720000267028809,7.5269999504089355
1773237398425558300,6.326558349609375,6.073999881744385,1.0290000438690186,7.270999908447266
1773237398435628500,6.336628662109375,5.692999839782715,0.7559999823570251,7.3979997634887695
1773237398445699000,6.346698974609375,5.611999988555908,0.621999979019165,7.131999969482422
1773237398455769300,6.356769287109375,4.64900016784668,0.4860000014305115,7.460000038146973
1773237398465839900,6.36683984375,3.9830000400543213,0.3440000116825104,8.918000221252441
1773237398475910100,6.37691015625,2.1710000038146973,0.01899999938905239,10.081000328063965
1773237398485980700,6.386980712890625,0.4519999921321869,-0.2029999941587448,10.951000213623047
1773237398496051000,6.397051025390625,-1.409999966621399,-0.032999999821186066,11.281000137329102
1773237398506121200,6.407121337890625,-2.0920000076293945,0.33500000834465027,11.609000205993652
1773237398516191700,6.417191650390625,-0.7870000004768372,0.6629999876022339,11.17300033569336
1773237398526262000,6.427261962890625,-0.43299999833106995,0.3109999895095825,10.914999961853027
1773237398536332500,6.43733251953125,0.984000027179718,-0.25600001215934753,10.45300006866455
1773237398546402800,6.44740283203125,2.694999933242798,-0.7350000143051147,8.824999809265137
1773237398556473300,6.457473388671875,4.01200008392334,-0.6700000166893005,7.4720001220703125
1773237398566543600,6.467543701171875,6.48799991607666,-0.49000000953674316,7.488999843597412
1773237398576614100,6.4776142578125,7.084000110626221,-0.2630000114440918,7.39300012588501
1773237398586684400,6.487684326171875,8.451000213623047,-0.11400000005960464,6.896999835968018
1773237398596754700,6.497754638671875,7.2829999923706055,-0.14300000667572021,6.25600004196167
1773237398606825200,6.5078251953125,5.4770002365112305,0.0020000000949949026,6.750999927520752
1773237398616895500,6.5178955078125,5.552000045776367,0.3799999952316284,7.502999782562256
1773237398626966000,6.527966064453125,4.4019999504089355,0.3490000069141388,8.588000297546387
1773237398637036300,6.538036376953125,4.5269999504089355,0,9.829999923706055
1773237398647106600,6.5481064453125,1.9079999923706055,-0.5379999876022339,9.774999618530273
1773237398657177000,6.558177001953125,2.247999906539917,-0.1979999989271164,9.402000427246094
1773237398667247400,6.568247314453125,2.924999952316284,0.2150000035762787,9.128999710083008
1773237398677318000,6.57831787109375,3.0950000286102295,0.18400000035762787,9.272000312805176
1773237398687388200,6.58838818359375,3.884999990463257,0.4620000123977661,9.564000129699707
1773237398697458700,6.598458740234375,4.939000129699707,0.7580000162124634,7.823999881744385
1773237398707529000,6.608529052734375,5.706999778747559,1.472000002861023,6.940000057220459
1773237398717599500,6.618599609375,6.861000061035156,1.9509999752044678,6.914000034332275
1773237398727669800,6.628669677734375,6.004000186920166,1.5700000524520874,6.689000129699707
1773237398737740300,6.638740234375,6.617000102996826,1.0959999561309814,7.235000133514404
1773237398747810600,6.648810546875,5.414999961853027,0.44699999690055847,7.784999847412109
1773237398757880800,6.658880859375,4.954999923706055,-0.1770000010728836,8.248000144958496
1773237398767951400,6.668951416015625,3.7939999103546143,-0.2370000034570694,8.781000137329102
1773237398778021600,6.679021728515625,3.502000093460083,-0.29600000381469727,8.972999572753906
1773237398788092200,6.689092041015625,2.8529999256134033,-0.34200000762939453,9.3149995803833
1773237398798162400,6.699162353515625,2.128000020980835,-0.7699999809265137,9.673999786376953
1773237398808232700,6.709232666015625,2.3459999561309814,-0.9639999866485596,10.07699966430664
1773237398818303200,6.71930322265625,2.5350000858306885,-0.9070000052452087,9.788999557495117
1773237398828373500,6.72937353515625,3.135999917984009,-0.5049999952316284,9.222000122070312
1773237398838443800,6.73944384765625,4.191999912261963,-0.1459999978542328,8.194999694824219
1773237398848514300,6.749514404296875,4.458000183105469,0.01899999938905239,8.029999732971191
1773237398858584600,6.75958447265625,6.208000183105469,-0.004000000189989805,7.756999969482422
1773237398868655000,6.769655029296875,4.8979997634887695,-0.5189999938011169,7.559999942779541
1773237398878725400,6.779725341796875,6.313000202178955,-0.4569999873638153,8.159000396728516
1773237398888795600,6.789795654296875,6.2220001220703125,-0.3630000054836273,7.35699987411499
1773237398898866200,6.7998662109375,5.77400016784668,-0.15000000596046448,6.750999927520752
1773237398908936400,6.8099365234375,5.827000141143799,0.05900000035762787,7.473999977111816
1773237398919007000,6.820007080078125,5.367000102996826,0.34200000762939453,7.679999828338623
1773237398929077200,6.8300771484375,5.214000225067139,0.8370000123977661,7.540999889373779
1773237398939147800,6.840147705078125,5.699999809265137,1.2589999437332153,7.735000133514404
1773237398949218000,6.850218017578125,5.646999835968018,1.3669999837875366,7.76200008392334
1773237398959288600,6.86028857421875,6.622000217437744,1.0839999914169312,8.263999938964844
1773237398969358800,6.87035888671875,5.439000129699707,0.8090000152587891,8.218999862670898
1773237398979429400,6.880429443359375,6.617000102996826,0.7990000247955322,8.215999603271484
1773237398989499600,6.890499755859375,5.785999774932861,1.1100000143051147,7.131999969482422
1773237398999570200,6.900570068359375,6.791999816894531,1.0770000219345093,6.7179999351501465
1773237399009640400,6.910640380859375,6.039999961853027,0.44699999690055847,7.318999767303467
1773237399019711000,6.9207109375,5.203999996185303,-0.4180000126361847,7.927000045776367
1773237399029781200,6.93078125,5.443999767303467,-0.8610000014305115,8.378999710083008
1773237399039851800,6.940851806640625,4.811999797821045,-0.984000027179718,8.147000312805176
1773237399049922000,6.950922119140625,5.409999847412109,-1.25600004196167,8.116000175476074
1773237399059992300,6.960992431640625,4.421999931335449,-1.5750000476837158,8.491999626159668
1773237399070062800,6.971062744140625,4.054999828338623,-1.4479999542236328,8.819999694824219
1773237399080133000,6.981133056640625,4.695000171661377,-0.6340000033378601,8.503999710083008
1773237399090203600,6.99120361328125,4.765999794006348,0.4620000123977661,7.874000072479248
1773237399100274000,7.00127392578125,5.176000118255615,1.1679999828338623,7.646999835968018
1773237399110344200,7.01134423828125,4.521999835968018,1.5290000438690186,7.603000164031982
1773237399120414700,7.021414794921875,4.565000057220459,1.5080000162124634,7.686999797821045
1773237399130485000,7.031485107421875,4.672999858856201,1.2230000495910645,8.258999824523926
1773237399140555500,7.041555419921875,4.031000137329102,0.6150000095367432,8.76200008392334
1773237399150625800,7.051625732421875,3.9549999237060547,0.0860000029206276,9.064000129699707
1773237399160696300,7.0616962890625,3.250999927520752,-0.20499999821186066,9.03499984741211
1773237399170766600,7.0717666015625,3.4570000171661377,-0.24799999594688416,9.02299976348877
1773237399180837000,7.081837158203125,3.434999942779541,-0.18400000035762787,8.79800033569336
1773237399190907400,7.091907470703125,3.6429998874664307,-0.0860000029206276,8.633000373840332
1773237399200977700,7.101977783203125,4.050000190734863,0.1599999964237213,8.472999572753906
1773237399211048200,7.112048095703125,4.556000232696533,0.2630000114440918,8.156999588012695
1773237399221118500,7.122118408203125,4.8429999351501465,0.18400000035762787,8.065999984741211
1773237399231189000,7.13218896484375,4.493000030517578,-0.0020000000949949026,8.098999977111816
1773237399241259300,7.14225927734375,4.76200008392334,-0.2529999911785126,8.170999526977539
1773237399251329800,7.152329833984375,4.473999977111816,-0.2720000147819519,8.595000267028809
1773237399261400000,7.162400146484375,4.089000225067139,-0.08799999952316284,8.706999778747559
1773237399271470600,7.172470703125,3.997999906539917,0.11900000274181366,8.53499984741211
1773237399281540900,7.182540771484375,3.562000036239624,0.30399999022483826,8.711999893188477
1773237399291611100,7.192611083984375,3.1530001163482666,0.289000004529953,8.85099983215332
1773237399301681700,7.202681640625,3.180999994277954,0.18400000035762787,8.996999740600586
1773237399311752000,7.212751953125,3.109999895095825,0.0860000029206276,9.154999732971191
1773237399321822500,7.222822509765625,3.2339999675750732,0.2840000092983246,9.175999641418457
1773237399331892700,7.232892822265625,4.11299991607666,0.4259999990463257,8.685999870300293
1773237399341963000,7.242962890625,4.355000019073486,0.43799999356269836,8.461000442504883
1773237399352033500,7.253033447265625,3.7799999713897705,0.3540000021457672,8.52299976348877
1773237399362103800,7.263103759765625,4.651000022888184,0.328000009059906,8.324000358581543
1773237399372174300,7.27317431640625,4.093999862670898,0.47099998593330383,8.074999809265137
1773237399382244600,7.28324462890625,4.228000164031982,0.6079999804496765,8.317000389099121
1773237399392315100,7.293315185546875,4.198999881744385,0.5669999718666077,8.159000396728516
1773237399402385400,7.303385498046875,4.168000221252441,0.3370000123977661,8.175999641418457
1773237399412455700,7.31345556640625,3.8919999599456787,-0.10700000077486038,8.645000457763672
1773237399422526200,7.323526123046875,3.484999895095825,-0.47099998593330383,8.881999969482422
1773237399432596500,7.333596435546875,3.8570001125335693,-0.5550000071525574,9.310999870300293
1773237399442667000,7.3436669921875,3.109999895095825,-0.3059999942779541,9.12600040435791
1773237399452737300,7.3537373046875,4.186999797821045,-0.007000000216066837,8.699999809265137
1773237399462807800,7.363807861328125,3.9600000381469727,0.052000001072883606,8.730999946594238
1773237399472878000,7.373878173828125,3.0880000591278076,-0.1720000058412552,8.673999786376953
1773237399482948600,7.383948486328125,4.453000068664551,-0.25099998712539673,8.800999641418457
1773237399493019000,7.394018798828125,3.4110000133514404,-0.1889999955892563,8.38599967956543
1773237399503089400,7.40408935546875,4.377999782562256,-0.014000000432133675,8.607000350952148
1773237399513159700,7.41415966796875,4.078999996185303,0.1720000058412552,8.482000350952148
1773237399523230200,7.424230224609375,3.936000108718872,0.3630000054836273,8.003000259399414
1773237399533300500,7.434300537109375,4.258999824523926,0.37299999594688416,8.256999969482422
1773237399543370800,7.444370849609375,3.5329999923706055,0.17900000512599945,8.668999671936035
1773237399553441300,7.454441162109375,3.6530001163482666,0.3659999966621399,9.100000381469727
1773237399563511600,7.464511474609375,3.611999988555908,0.42800000309944153,8.817000389099121
1773237399573582000,7.47458203125,3.1480000019073486,0.5529999732971191,8.876999855041504
1773237399583652400,7.48465234375,3.2769999504089355,0.7870000004768372,9.039999961853027
1773237399593723000,7.494722900390625,2.9660000801086426,0.621999979019165,8.73799991607666
1773237399603793200,7.504793212890625,3.2960000038146973,0.5090000033378601,9.04699993133545
1773237399613863400,7.514863525390625,3.5169999599456787,0.15000000596046448,9.001999855041504
1773237399623934000,7.524933837890625,3.552000045776367,-0.16899999976158142,9.197999954223633
1773237399634004200,7.535004150390625,3.5309998989105225,-0.35600000619888306,9.038000106811523
1773237399644074800,7.54507470703125,3.6480000019073486,-0.42100000381469727,8.494000434875488
1773237399654145000,7.55514501953125,3.5929999351501465,-0.375,8.649999618530273
1773237399664215600,7.565215576171875,3.6510000228881836,-0.4519999921321869,8.888999938964844
1773237399674285800,7.575285888671875,3.563999891281128,-0.2290000021457672,8.640000343322754
1773237399684356400,7.5853564453125,3.9070000648498535,0.1770000010728836,8.722000122070312
1773237399694426600,7.595426513671875,4.125,0.4399999976158142,8.560999870300293
1773237399704497000,7.605496826171875,4.103000164031982,0.34200000762939453,8.670999526977539
1773237399714567400,7.6155673828125,3.4639999866485596,0.0860000029206276,8.881999969482422
1773237399724637700,7.6256376953125,2.640000104904175,0.1379999965429306,9.140999794006348
1773237399734708200,7.635708251953125,3.5429999828338623,0.48100000619888306,8.961000442504883
1773237399744778500,7.645778564453125,2.9200000762939453,0.5860000252723694,8.845999717712402
1773237399754848800,7.655848876953125,3.250999927520752,0.5669999718666077,9.262999534606934
1773237399764919300,7.665919189453125,2.7170000076293945,0.4300000071525574,9.065999984741211
1773237399774989600,7.675989501953125,3.4260001182556152,0.3109999895095825,8.741000175476074
1773237399785060000,7.68606005859375,3.4110000133514404,0,9.112000465393066
1773237399795130400,7.69613037109375,2.805999994277954,-0.3319999873638153,9.020999908447266
1773237399805201000,7.706200927734375,3.509000062942505,-0.20800000429153442,8.989999771118164
1773237399815271200,7.716271240234375,3.002000093460083,0.10499999672174454,8.559000015258789
1773237399825341400,7.726341552734375,3.8570001125335693,0.382999986410141,8.723999977111816
1773237399835412000,7.736411865234375,2.7790000438690186,0.31299999356269836,8.595000267028809
1773237399845482200,7.746482177734375,3.494999885559082,-0.07400000095367432,9.01099967956543
1773237399855552800,7.756552734375,2.359999895095825,-0.2919999957084656,9.211999893188477
1773237399865623000,7.766623046875,2.489000082015991,-0.13600000739097595,9.234000205993652
1773237399875693300,7.776693359375,3.750999927520752,0.0430000014603138,9.317999839782715
1773237399885763800,7.786763916015625,2.0350000858306885,-0.03500000014901161,9.166999816894531
1773237399895834000,7.796834228515625,3.3389999866485596,-0.007000000216066837,9.317999839782715
1773237399905904600,7.806904541015625,2.062999963760376,-0.08299999684095383,9.01099967956543
1773237399915975000,7.816974853515625,3.062000036239624,-0.04699999839067459,9.406000137329102
1773237399926045400,7.82704541015625,2.7170000076293945,-0.2460000067949295,9.23900032043457
1773237399936115700,7.83711572265625,2.309999942779541,-0.020999999716877937,9.253000259399414
1773237399946186200,7.847186279296875,3.5409998893737793,0.2919999957084656,9.057000160217285
1773237399956256500,7.857256591796875,2.3340001106262207,0.328000009059906,8.53499984741211
1773237399966327000,7.8673271484375,4.11299991607666,0.49000000953674316,9.149999618530273
1773237399976397300,7.877397216796875,2.4820001125335693,0.2770000100135803,9.041999816894531
1773237399986467800,7.8874677734375,2.9110000133514404,0.22200000286102295,9.039999961853027
1773237399996538000,7.8975380859375,3.506999969482422,0.414000004529953,9.222000122070312
1773237400006608600,7.907608642578125,2.302999973297119,0.5809999704360962,9.001999855041504
1773237400016679000,7.917678955078125,3.0309998989105225,0.8930000066757202,8.930000305175781
1773237400026749200,7.927749267578125,2.8580000400543213,0.7799999713897705,8.817000389099121
1773237400036819700,7.93781982421875,2.3580000400543213,0.4399999976158142,9.050000190734863
1773237400046890000,7.947889892578125,2.7149999141693115,0.05900000035762787,9.385000228881836
1773237400056960500,7.95796044921875,2.140000104904175,-0.27000001072883606,9.288999557495117
1773237400067030800,7.96803076171875,2.869999885559082,-0.4860000014305115,9.52400016784668
1773237400077101300,7.978101318359375,2.4800000190734863,-0.7129999995231628,9.472999572753906
1773237400087171600,7.988171630859375,1.9989999532699585,-0.7080000042915344,9.515999794006348
1773237400097242000,7.9982421875,2.193000078201294,-0.3659999966621399,9.390000343322754
1773237400107312400,8.0083125,1.968000054359436,0.06400000303983688,9.217000007629395
1773237400117383000,8.0183828125,2.0179998874664307,0.3630000054836273,9.310999870300293
1773237400127453200,8.028453125,1.88100004196167,0.4950000047683716,9.51200008392334
1773237400137523700,8.038523681640624,1.659000039100647,0.3540000021457672,9.402000427246094
1773237400147594000,8.048593994140624,1.437999963760376,0.04500000178813934,9.484999656677246
1773237400157664300,8.058664306640624,0.9160000085830688,-0.3630000054836273,9.77299976348877
1773237400167734800,8.06873486328125,0.39500001072883606,-0.6100000143051147,10.366000175476074
1773237400177805000,8.07880517578125,0.10000000149011612,-0.5529999732971191,10.763999938964844
1773237400187875300,8.088875244140626,-0.20999999344348907,-0.16200000047683716,10.838000297546387
1773237400197945900,8.09894580078125,-0.5979999899864197,0.29899999499320984,10.928999900817871
1773237400208016100,8.10901611328125,-1.0820000171661377,0.7350000143051147,10.812000274658203
1773237400218086700,8.119086669921876,-1.4529999494552612,0.9359999895095825,10.54800033569336
1773237400228157000,8.129156982421875,-1.6950000524520874,0.7459999918937683,10.699000358581543
1773237400238227200,8.139227294921875,-2.3269999027252197,0.5,11.182999610900879
1773237400248297700,8.149297607421875,-2.0230000019073486,0.2720000147819519,11.482000350952148
1773237400258368000,8.159367919921875,-2.315000057220459,0.0689999982714653,11.390999794006348
1773237400268438500,8.1694384765625,-2.302999973297119,-0.16899999976158142,11.730999946594238
1773237400278508800,8.1795087890625,-2.4149999618530273,-0.5770000219345093,11.649999618530273
1773237400288579000,8.1895791015625,-3.1670000553131104,-0.5770000219345093,11.362000465393066
1773237400298649600,8.199649658203125,-1.378999948501587,-0.5410000085830688,11.321999549865723
1773237400308719900,8.209719970703125,-1.218000054359436,-0.9330000281333923,11.098999977111816
1773237400318790400,8.219790283203125,0.375,-1.343000054359436,11.194999694824219
1773237400328860700,8.229860595703125,1.0429999828338623,-1.3760000467300415,10.638999938964844
1773237400338931200,8.23993115234375,2.3529999256134033,-0.8610000014305115,8.951000213623047
1773237400349001500,8.25000146484375,4.284999847412109,0.3540000021457672,8.543999671936035
1773237400359072000,8.260072021484374,6.197999954223633,1.5219999551773071,7.631999969482422
1773237400369142300,8.270142333984374,5.300000190734863,1.8960000276565552,6.863999843597412
1773237400379212500,8.280212646484374,5.451000213623047,2.046999931335449,7.3379998207092285
1773237400389283000,8.290282958984376,5.160999774932861,1.8329999446868896,7.4070000648498535
1773237400399353300,8.300353271484376,4.164999961853027,1.031000018119812,8.32699966430664
1773237400409424000,8.310423828125,2.7790000438690186,0.34700000286102295,9.595000267028809
1773237400419494100,8.320494140625,1.7999999523162842,-0.39899998903274536,9.67199993133545
1773237400429564700,8.330564697265626,1.121999979019165,-0.7850000262260437,10.013999938964844
1773237400439635000,8.340635009765625,0.847000002861023,-0.968999981880188,10.74899959564209
1773237400449705500,8.35070556640625,0.29899999499320984,-1.0390000343322754,10.76099967956543
1773237400459775700,8.360775634765625,1.1540000438690186,-0.42800000309944153,10.527000427246094
1773237400469846300,8.37084619140625,2.8919999599456787,0.2290000021457672,9.038000106811523
1773237400479916500,8.38091650390625,3.943000078201294,0.24400000274181366,8.428999900817871
1773237400489986800,8.39098681640625,4.010000228881836,0.0430000014603138,8.038999557495117
1773237400500057300,8.401057373046875,5.03000020980835,-0.2800000011920929,7.175000190734863
1773237400510127600,8.411127685546875,6.3420000076293945,0.04699999839067459,7.291999816894531
1773237400520198100,8.4211982421875,7.179999828338623,0.21299999952316284,7.611000061035156
1773237400530268400,8.431268310546875,7.133999824523926,-0.15299999713897705,7.084000110626221
1773237400540339000,8.4413388671875,6.076000213623047,-0.3059999942779541,7.002999782562256
1773237400550409200,8.4514091796875,5.36299991607666,0.0860000029206276,7.089000225067139
1773237400560479700,8.461479736328124,5.013000011444092,0.1809999942779541,7.593999862670898
1773237400570550000,8.471550048828124,4.5269999504089355,0.054999999701976776,8.718999862670898
1773237400580620300,8.481620361328124,3.9709999561309814,-0.09799999743700027,9.946999549865723
1773237400590690800,8.49169091796875,3.7869999408721924,0.1979999989271164,9.670000076293945
1773237400600761000,8.501760986328126,3.0329999923706055,0.5170000195503235,8.772000312805176
1773237400610831600,8.51183154296875,1.9199999570846558,0.9570000171661377,8.505999565124512
1773237400620902000,8.52190185546875,3.4809999465942383,1.1540000438690186,8.77400016784668
1773237400630972200,8.53197216796875,3.3440001010894775,0.828000009059906,8.991999626159668
1773237400641042700,8.542042724609376,5.553999900817871,0.5479999780654907,9.196000099182129
1773237400651113000,8.552113037109375,4.546000003814697,0.06199999898672104,8.324000358581543
1773237400661183500,8.56218359375,6.478000164031982,0.26499998569488525,7.460000038146973
1773237400671253800,8.572253662109375,6.275000095367432,0.49300000071525574,6.52400016784668
1773237400681324300,8.58232421875,6.192999839782715,0.531000018119812,6.821000099182129
1773237400691394600,8.59239453125,6.229000091552734,0.33500000834465027,7.081999778747559
1773237400701465000,8.602465087890625,5.206999778747559,0.21699999272823334,7.705999851226807
1773237400711535400,8.612535400390625,5.702000141143799,0.07400000095367432,8.20199966430664
1773237400721606000,8.62260595703125,4.521999835968018,-0.004000000189989805,8.819999694824219
1773237400731676200,8.63267626953125,4.322999954223633,-0.12200000137090683,8.649999618530273
1773237400741746700,8.64274658203125,3.0980000495910645,-0.414000004529953,8.571000099182129
1773237400751817000,8.65281689453125,3.1570000648498535,-0.14300000667572021,9.373000144958496
1773237400761887200,8.66288720703125,2.7980000972747803,0.03999999910593033,9.458999633789062
1773237400771957800,8.672957763671874,2.994999885559082,0.19599999487400055,9.001999855041504
1773237400782028000,8.683028076171874,3.3369998931884766,0.04500000178813934,8.876999855041504
1773237400792098600,8.6930986328125,3.447000026702881,-0.6029999852180481,8.78600025177002
1773237400802168800,8.7031689453125,3.8570001125335693,-1.399999976158142,8.791000366210938
1773237400812239000,8.713239013671876,4.1529998779296875,-1.409999966621399,8.895999908447266
1773237400822309600,8.7233095703125,4.9029998779296875,-1.0429999828338623,8.300000190734863
1773237400832380000,8.7333798828125,5.61899995803833,-0.34200000762939453,7.861999988555908
1773237400842450200,8.7434501953125,5.014999866485596,0.12399999797344208,7.816999912261963
1773237400852520700,8.753520751953126,4.9629998207092285,0.7110000252723694,8.123000144958496
1773237400862591000,8.763591064453125,4.8429999351501465,1.065000057220459,7.693999767303467
1773237400872661500,8.77366162109375,4.510000228881836,1.5080000162124634,7.965000152587891
1773237400882731800,8.783731689453125,4.151000022888184,1.3619999885559082,8.40999984741211
1773237400892802300,8.79380224609375,3.875999927520752,1.2300000190734863,8.531999588012695
1773237400902872600,8.80387255859375,4.460000038146973,1.2130000591278076,8.75
1773237400912943000,8.813943115234375,4.140999794006348,0.9240000247955322,8.097000122070312
1773237400923013400,8.824013427734375,5.03000020980835,0.7540000081062317,8.145000457763672
1773237400933084000,8.834083984375,4.89300012588501,0.5120000243186951,8.170999526977539
1773237400943154200,8.844154296875,6.019000053405762,0.40400001406669617,7.500999927520752
1773237400953224400,8.854224365234375,6.050000190734863,0.23399999737739563,7.2779998779296875
1773237400963295000,8.864294921875,6.550000190734863,-0.04500000178813934,7.539000034332275
1773237400973365500,8.874365478515625,6.663000106811523,-0.33000001311302185,7.505000114440918
1773237400983435800,8.884435791015624,5.9679999351501465,-0.41600000858306885,7.374000072479248
1773237400993506000,8.894506103515624,7.114999771118164,-0.6439999938011169,7.302000045776367
1773237401003576600,8.90457666015625,5.039000034332275,-0.9210000038146973,7.607999801635742
1773237401013646800,8.914646728515624,5.7789998054504395,-1.0119999647140503,8.446000099182129
1773237401023717400,8.92471728515625,4.776000022888184,-0.8690000176429749,8.598999977111816
1773237401033787600,8.93478759765625,4.841000080108643,-0.5410000085830688,8.598999977111816
1773237401043858200,8.944858154296876,3.947999954223633,-0.3659999966621399,8.564000129699707
1773237401053928400,8.954928466796876,3.36299991607666,-0.25600001215934753,8.508000373840332
1773237401063999000,8.9649990234375,3.6389999389648438,0.04699999839067459,8.666999816894531
1773237401074069200,8.9750693359375,3.5239999294281006,0.3160000145435333,8.645000457763672
1773237401084139500,8.985139404296875,3.9830000400543213,0.6840000152587891,8.616000175476074
1773237401094210000,8.9952099609375,4.454999923706055,1.1269999742507935,8.293000221252441
1773237401104280300,9.0052802734375,4.874000072479248,1.2109999656677246,7.644000053405762
1773237401114350800,9.015350830078125,5.051000118255615,0.8830000162124634,7.946000099182129
1773237401124421000,9.025421142578125,4.7230000495910645,0.44699999690055847,8.269000053405762
1773237401134491600,9.03549169921875,4.660999774932861,0.4950000047683716,8.364999771118164
1773237401144562000,9.04556201171875,4.739999771118164,0.7300000190734863,7.946000099182129
1773237401154632200,9.055632080078125,4.129000186920166,0.7870000004768372,8.123000144958496
1773237401164702700,9.06570263671875,3.4040000438690186,0.7820000052452087,8.565999984741211
1773237401174773000,9.07577294921875,3.002000093460083,0.7559999823570251,8.743000030517578
1773237401184843500,9.085843505859375,3.265000104904175,0.5239999890327454,9.09000015258789
1773237401194913800,9.095913818359374,2.561000108718872,0.25600001215934753,9.508999824523926
1773237401204984300,9.105984375,2.76200008392334,-0.07100000232458115,9.456999778747559
1773237401215054600,9.1160546875,3.046999931335449,-0.32499998807907104,9.342000007629395
1773237401225124900,9.126124755859376,3.052000045776367,-0.6669999957084656,9.187999725341797
1773237401235195400,9.1361953125,3.318000078201294,-1.065000057220459,8.91100025177002
1773237401245265700,9.146265625,3.2170000076293945,-1.059999942779541,8.918000221252441
1773237401255336200,9.156336181640626,4.3470001220703125,-0.8949999809265137,8.61400032043457
1773237401265406500,9.166406494140626,3.9809999465942383,-0.5120000243186951,8.39799976348877
1773237401275476700,9.176476806640625,4.276000022888184,0.2370000034570694,8.475000381469727
1773237401285547300,9.18654736328125,4.702000141143799,0.7110000252723694,8.041999816894531
1773237401295617500,9.196617431640625,4.21999979019165,0.8709999918937683,8.072999954223633
1773237401305688000,9.20668798828125,3.763000011444092,0.8730000257492065,8.463000297546387
1773237401315758300,9.21675830078125,3.739000082015991,0.7179999947547913,8.59000015258789
1773237401325828900,9.226828857421875,3.569000005722046,0.5049999952316284,8.895999908447266
1773237401335899100,9.236899169921875,2.802999973297119,0.2529999911785126,9.265000343322754
1773237401345969700,9.2469697265625,2.9749999046325684,0.07900000363588333,9.277000427246094
1773237401356040000,9.2570400390625,1.902999997138977,0.24799999594688416,9.190999984741211
1773237401366110200,9.267110107421875,3.2170000076293945,0.39899998903274536,8.892000198364258
1773237401376180700,9.2771806640625,3.3589999675750732,0.1289999932050705,8.875
1773237401386251000,9.2872509765625,2.930000066757202,-0.14300000667572021,9.312999725341797
1773237401396321500,9.297321533203124,3.809000015258789,-0.3009999990463257,8.954000473022461
1773237401406391800,9.307391845703124,3.9089999198913574,-0.2630000114440918,8.487000465393066
1773237401416462300,9.31746240234375,4.02400016784668,-0.21299999952316284,8.51099967956543
1773237401426532600,9.32753271484375,3.690999984741211,-0.13099999725818634,8.440999984741211
1773237401436603100,9.33760302734375,4.066999912261963,0.22200000286102295,8.520000457763672
1773237401446673400,9.34767333984375,4.177000045776367,0.40400001406669617,8.420000076293945
1773237401456743700,9.35774365234375,3.7850000858306885,0.1860000044107437,8.414999961853027
1773237401466814200,9.367814208984376,3.5450000762939453,-0.05900000035762787,8.963000297546387
1773237401476884500,9.377884521484376,3.1500000953674316,-0.39500001072883606,9.020999908447266
1773237401486955000,9.387955078125,3.2130000591278076,-0.43299999833106995,9.446999549865723
1773237401497025300,9.398025390625,2.816999912261963,-0.19099999964237213,9.329999923706055
1773237401507095800,9.408095703125,2.986999988555908,0.44200000166893005,9.142999649047852
1773237401517166000,9.418166015625,3.390000104904175,0.8880000114440918,8.772000312805176
1773237401527236600,9.428236572265625,3.2750000953674316,0.9670000076293945,8.734000205993652
1773237401537307000,9.438306884765625,3.2720000743865967,0.7799999713897705,8.736000061035156
1773237401547377200,9.448377197265625,3.441999912261963,0.5669999718666077,8.680999755859375
1773237401557447700,9.45844775390625,3.74399995803833,0.3059999942779541,8.75
1773237401567518000,9.46851806640625,3.888000011444092,0.05900000035762787,8.78600025177002
1773237401577588500,9.47858837890625,3.440000057220459,0.03099999949336052,8.831999778747559
1773237401587658800,9.48865869140625,3.5480000972747803,0.23199999332427979,8.736000061035156
1773237401597729000,9.49872900390625,3.7060000896453857,0.35600000619888306,8.531999588012695
1773237401607799600,9.508799560546874,3.062000036239624,0.25099998712539673,8.88700008392334
1773237401617869800,9.518869873046874,3.0399999618530273,0.03500000014901161,9.13599967956543
1773237401627940400,9.5289404296875,3.319999933242798,-0.04500000178813934,9.236000061035156
1773237401638010600,9.5390107421875,3.13100004196167,-0.1459999978542328,9.02299976348877
1773237401648081200,9.5490810546875,3.315000057220459,-0.3440000116825104,8.975000381469727
1773237401658151400,9.5591513671875,3.308000087738037,-0.5049999952316284,9.053999900817871
1773237401668221700,9.5692216796875,2.6429998874664307,-0.2029999941587448,8.871999740600586
1773237401678292200,9.579292236328126,4.1579999923706055,-0.11400000005960464,8.437000274658203
1773237401688362500,9.589362548828126,3.950000047683716,-0.2840000092983246,8.675999641418457
1773237401698433000,9.59943310546875,3.440000057220459,-0.3199999928474426,8.864999771118164
1773237401708503300,9.60950341796875,4.0289998054504395,-0.11900000274181366,8.42199993133545
1773237401718573800,9.61957373046875,4.361999988555908,0.2460000067949295,8.425000190734863
1773237401728644000,9.62964404296875,4.163000106811523,0.3779999911785126,8.565999984741211
1773237401738714600,9.639714599609375,3.8919999599456787,0.5120000243186951,8.456000328063965
1773237401748785200,9.64978515625,3.433000087738037,0.7459999918937683,8.531999588012695
1773237401758855400,9.65985546875,3.888000011444092,0.6439999938011169,8.670999526977539
1773237401768925700,9.66992578125,3.2720000743865967,0.4300000071525574,8.949000358581543
1773237401778996200,9.679996337890625,3.059000015258789,0.2290000021457672,8.963000297546387
1773237401789066500,9.69006640625,3.2149999141693115,0.2370000034570694,8.977999687194824
1773237401799137000,9.700136962890625,3.739000082015991,0.3630000054836273,9.12399959564209
1773237401809207300,9.710207275390625,3.430000066757202,0.4569999873638153,8.876999855041504
1773237401819277800,9.72027783203125,3.631999969482422,0.40400001406669617,8.82699966430664
1773237401829348000,9.73034814453125,3.621999979019165,0.3009999990463257,8.670999526977539
1773237401839418600,9.740418701171874,3.9210000038146973,0.09000000357627869,8.579999923706055
1773237401849489000,9.750489013671874,3.9600000381469727,-0.2770000100135803,8.649999618530273
1773237401859559400,9.760559326171874,4.182000160217285,-0.36800000071525574,8.86299991607666
1773237401869629700,9.770629638671876,3.865999937057495,-0.40700000524520874,8.592000007629395
1773237401879700000,9.780699951171876,4.375999927520752,-0.1289999932050705,8.607000350952148
1773237401889770500,9.7907705078125,4.5960001945495605,0.24799999594688416,8.585000038146973
1773237401899840800,9.8008408203125,3.9159998893737793,0.3630000054836273,8.345999717712402
1773237401909911300,9.810911376953126,4.35699987411499,0.29899999499320984,8.32699966430664
1773237401919981600,9.820981689453125,3.98799991607666,0.03500000014901161,8.72599983215332
1773237401930052000,9.831052001953125,3.197999954223633,-0.29899999499320984,8.779000282287598
1773237401940122400,9.841122314453125,4.965000152587891,-0.21299999952316284,9.005999565124512
1773237401950193000,9.85119287109375,2.9519999027252197,-0.06400000303983688,8.427000045776367
1773237401960263200,9.86126318359375,5.515999794006348,0.1979999989271164,8.559000015258789
1773237401970333700,9.871333740234375,3.6389999389648438,0.20499999821186066,8.16100025177002
1773237401980404000,9.881404052734375,4.261000156402588,0.6940000057220459,8.378999710083008
1773237401990474500,9.891474609375,5.000999927520752,0.8809999823570251,8.09000015258789
1773237402000544800,9.901544677734375,4.73799991607666,0.7870000004768372,8.027000427246094
1773237402010615000,9.911614990234375,4.242000102996826,0.6650000214576721,8.29800033569336
1773237402020685600,9.921685546875,4.974999904632568,0.22699999809265137,8.223999977111816
1773237402030755800,9.931755859375,4.110000133514404,-0.07400000095367432,8.147000312805176
1773237402040826400,9.941826416015624,4.763999938964844,-0.05700000002980232,8.496999740600586
1773237402050896600,9.951896728515624,4.363999843597412,-0.09300000220537186,8.378999710083008
1773237402060967000,9.961966796875,4.60099983215332,-0.05700000002980232,8.833999633789062
1773237402071037400,9.972037353515624,3.9089999198913574,-0.014000000432133675,8.628000259399414
1773237402081107700,9.982107666015626,3.4590001106262207,0.08799999952316284,8.154000282287598
1773237402091178200,9.99217822265625,3.9189999103546143,0.35899999737739563,8.145000457763672
1773237402101248500,10.00224853515625,3.6480000019073486,0.08799999952316284,8.40999984741211
1773237402111319000,10.012319091796876,4.058000087738037,-0.30799999833106995,9.152999877929688
1773237402121389300,10.022389404296876,3.6530001163482666,-0.5379999876022339,8.972999572753906
1773237402131459600,10.03245947265625,4.033999919891357,-0.38499999046325684,8.494000434875488
1773237402141530000,10.042530029296875,4.179999828338623,-0.0860000029206276,8.585000038146973
1773237402151600400,10.052600341796875,4.040999889373779,-0.10700000077486038,8.72599983215332
1773237402161671000,10.0626708984375,4.047999858856201,-0.10199999809265137,8.868000030517578
1773237402171741200,10.0727412109375,2.183000087738037,0.17900000512599945,8.718999862670898
1773237402181811500,10.0828115234375,3.3320000171661377,0.7300000190734863,8.711999893188477
1773237402191882000,10.092882080078125,3.5739998817443848,0.9449999928474426,8.697999954223633
1773237402201952500,10.102952392578125,1.7209999561309814,0.6650000214576721,9.272000312805176
1773237402212022800,10.113022705078125,2.5899999141693115,0.2290000021457672,9.684000015258789
1773237402222093000,10.123093017578125,2.069999933242798,-0.07900000363588333,9.444999694824219
1773237402232163600,10.13316357421875,1.496000051498413,-0.07900000363588333,9.428000450134277
1773237402242233900,10.14323388671875,2.614000082015991,-0.20100000500679016,9.753000259399414
1773237402252304400,10.153304443359374,1.0479999780654907,-0.07100000232458115,9.689000129699707
1773237402262374700,10.163374755859374,1.7760000228881836,0.4740000069141388,9.449000358581543
1773237402272445200,10.173445068359374,1.6829999685287476,0.9359999895095825,9.059000015258789
1773237402282515500,10.183515380859374,2.193000078201294,0.9739999771118164,9.293999671936035
1773237402292585700,10.193585693359376,1.6779999732971191,0.20499999821186066,9.402000427246094
1773237402302656300,10.20365625,0.4300000071525574,-0.5910000205039978,9.897000312805176
1773237402312726500,10.2137265625,1.0049999952316284,-0.8349999785423279,10.435999870300293
1773237402322797000,10.223797119140626,0.49000000953674316,-0.828000009059906,10.26099967956543
1773237402332867300,10.233867431640626,0.3109999895095825,-0.6840000152587891,10.411999702453613
1773237402342937900,10.243937744140625,-0.16200000047683716,-0.5289999842643738,10.663000106811523
1773237402353008000,10.254008056640625,-1.0720000267028809,-0.35100001096725464,10.777999877929688
1773237402363078700,10.26407861328125,-0.7559999823570251,-0.04699999839067459,10.814000129699707
1773237402373149000,10.27414892578125,-1.2760000228881836,-0.023000000044703484,10.967000007629395
1773237402383219200,10.28421923828125,-1.347000002861023,-0.07599999755620956,11.484000205993652
1773237402393289700,10.294289794921875,-2.1570000648498535,0.14800000190734863,11.29800033569336
1773237402403360000,10.304360107421875,-1.3980000019073486,0.5550000071525574,10.704000473022461
1773237402413430500,10.314430419921875,-0.4569999873638153,0.6240000128746033,10.781000137329102
1773237402423500800,10.324500732421875,-1.225000023841858,0.2750000059604645,11.152000427246094
1773237402433571300,10.3345712890625,-1.3880000114440918,0.10700000077486038,11.027000427246094
1773237402443641600,10.3446416015625,-0.8730000257492065,0.10000000149011612,10.694000244140625
1773237402453712100,10.354712158203125,-1.031000018119812,0.08100000023841858,10.704000473022461
1773237402463782400,10.364782470703124,-1.6080000400543213,-0.02800000086426735,10.854999542236328
1773237402473853000,10.37485302734375,-1.7109999656677246,0.1889999955892563,11.142000198364258
1773237402483923200,10.384923095703124,-1.7710000276565552,0.8999999761581421,12.154999732971191
1773237402493993700,10.39499365234375,-1.6679999828338623,0.5379999876022339,11.034000396728516
1773237402504064000,10.40506396484375,-2.6549999713897705,0.5839999914169312,11.223999977111816
1773237402514134500,10.415134521484376,-0.8569999933242798,0.2919999957084656,10.972000122070312
1773237402524204800,10.425204833984376,-0.16699999570846558,-0.1599999964237213,10.74899959564209
1773237402534275300,10.435275390625,1.8980000019073486,-0.5669999718666077,10.529000282287598
1773237402544345600,10.445345703125,2.3550000190734863,-1.1490000486373901,9.07800006866455
1773237402554416000,10.455416015625,3.7780001163482666,-1.2230000495910645,7.914999961853027
1773237402564486400,10.465486328125,5.625999927520752,-0.8899999856948853,7.751999855041504
1773237402574556700,10.475556640625,7.665999889373779,-0.5210000276565552,7.366000175476074
1773237402584627200,10.485627197265625,7.125,-0.2199999988079071,7.065000057220459
1773237402594697500,10.495697509765625,6.538000106811523,0.28700000047683716,6.933000087738037
1773237402604768000,10.50576806640625,5.395999908447266,1.0099999904632568,6.666999816894531
1773237402614838300,10.51583837890625,4.114999771118164,1.5149999856948853,7.89300012588501
1773237402624908800,10.52590869140625,3.178999900817871,1.409999966621399,9.369999885559082
1773237402634979000,10.53597900390625,1.0839999914169312,0.7820000052452087,10.770999908447266
1773237402645049300,10.54604931640625,-0.7110000252723694,0.07599999755620956,11.449000358581543
1773237402655120000,10.556119873046875,-0.6150000095367432,-0.6629999876022339,11.571000099182129
1773237402665190100,10.566190185546875,-0.652999997138977,-0.9620000123977661,11.281000137329102
1773237402675260700,10.5762607421875,-0.7390000224113464,-0.828000009059906,10.218000411987305
1773237402685331000,10.5863310546875,1.8910000324249268,-0.20800000429153442,9.342000007629395
1773237402695401200,10.596401123046874,3.8399999141693115,0.05000000074505806,8.045999526977539
1773237402705471700,10.6064716796875,6.947000026702881,0.05900000035762787,7.98199987411499
1773237402715542000,10.6165419921875,6.736999988555908,-0.03099999949336052,7.296999931335449
1773237402725612500,10.626612548828126,8.168999671936035,0.40400001406669617,5.940000057220459
1773237402735682800,10.636682861328126,8.57800006866455,1.2300000190734863,4.698999881744385
1773237402745753300,10.64675341796875,8.140000343322754,1.3279999494552612,5.441999912261963
1773237402755823600,10.65682373046875,7.498000144958496,0.8610000014305115,6.684000015258789
1773237402765894100,10.66689404296875,5.429999828338623,0.16200000047683716,7.730000019073486
1773237402775964400,10.67696435546875,4.586999893188477,-0.3869999945163727,8.892000198364258
1773237402786035000,10.687034912109375,3.0399999618530273,-0.8370000123977661,9.887999534606934
1773237402796105200,10.697105224609375,1.7519999742507935,-0.859000027179718,10.24899959564209
1773237402806175700,10.70717578125,1.5369999408721924,-0.3799999952316284,10.104999542236328
1773237402816246000,10.71724609375,1.6369999647140503,-0.1550000011920929,9.564000129699707
1773237402826316500,10.727316650390625,3.1549999713897705,-0.020999999716877937,9.664999961853027
1773237402836386800,10.73738671875,2.9489998817443848,0.12200000137090683,9.579000473022461
1773237402846457300,10.747457275390625,5.36299991607666,0.6389999985694885,8.321999549865723
1773237402856527600,10.757527587890625,6.052000045776367,1.246999979019165,6.803999900817871
1773237402866598000,10.767597900390625,7.321000099182129,1.524999976158142,6.715000152587891
1773237402876668400,10.77766845703125,6.580999851226807,1.4429999589920044,6.394000053405762
1773237402886738700,10.78773876953125,6.745999813079834,1.371000051498413,6.406000137329102
1773237402896809200,10.797809326171874,6.742000102996826,1.1130000352859497,6.703000068664551
1773237402906879500,10.80787939453125,5.0320000648498535,0.2529999911785126,7.507999897003174
1773237402916950000,10.817949951171874,3.872999906539917,-0.6290000081062317,9.14799976348877
1773237402927020300,10.828020263671876,2.881999969482422,-1.1369999647140503,9.449000358581543
1773237402937090800,10.8380908203125,1.7589999437332153,-1.3070000410079956,9.732000350952148
1773237402947161000,10.8481611328125,2.365000009536743,-1.3860000371932983,10.168000221252441
1773237402957231400,10.8582314453125,1.0549999475479126,-1.1920000314712524,10.449999809265137
1773237402967302000,10.868302001953126,2.499000072479248,-0.6869999766349792,10.270999908447266
1773237402977372200,10.8783720703125,3.059000015258789,0.03999999910593033,9.164999961853027
1773237402987442700,10.888442626953125,4.046000003814697,0.7919999957084656,8.317000389099121
1773237402997513000,10.898512939453125,4.814000129699707,1.0980000495910645,7.589000225067139
1773237403007583500,10.90858349609375,5.590000152587891,1.1030000448226929,7.318999767303467
1773237403017653800,10.91865380859375,6.2870001792907715,0.8610000014305115,7.349999904632568
1773237403027724300,10.928724365234375,6.263000011444092,0.2800000011920929,7.389999866485596
1773237403037794600,10.938794677734375,5.864999771118164,-0.0020000000949949026,7.513000011444092
1773237403047864800,10.94886474609375,5.4679999351501465,-0.08299999684095383,7.742000102996826
1773237403057935400,10.958935302734375,4.940999984741211,0.07400000095367432,7.940999984741211
1773237403068005600,10.969005615234375,4.374000072479248,0.03999999910593033,8.576000213623047
1773237403078076200,10.979076171875,2.6589999198913574,-0.07599999755620956,9.288999557495117
1773237403088146400,10.989146484375,2.7049999237060547,0.13099999725818634,9.538000106811523
1773237403098216700,10.999216796875,2.259999990463257,0.33899998664855957,9.369999885559082
1773237403108287200,11.009287353515624,2.3940000534057617,0.3540000021457672,9.552000045776367
1773237403118357800,11.019357666015624,2.244999885559082,-0.04699999839067459,9.513999938964844
1773237403128428000,11.029427978515624,2.068000078201294,-0.32499998807907104,9.506999969482422
1773237403138498300,11.039498291015626,3.1019999980926514,-0.6000000238418579,9.378000259399414
1773237403148568800,11.04956884765625,2.765000104904175,-0.7699999809265137,9.223999977111816
1773237403158639000,11.05963916015625,2.9079999923706055,-0.765999972820282,8.845999717712402
1773237403168709600,11.069709716796876,3.937999963760376,-0.3799999952316284,8.425000190734863
1773237403178780000,11.07977978515625,4.367000102996826,-0.004000000189989805,8.333999633789062
1773237403188850400,11.089850341796875,5.013000011444092,0.4620000123977661,8.220999717712402
1773237403198920700,11.099920654296875,5.508999824523926,0.9810000061988831,7.435999870300293
1773237403208991200,11.1099912109375,6.708000183105469,1.690000057220459,7.117000102996826
1773237403219061500,11.1200615234375,7.201000213623047,1.9119999408721924,6.578999996185303
1773237403229131800,11.1301318359375,7.01200008392334,1.6799999475479126,6.526000022888184
1773237403239202300,11.140202392578125,7.140999794006348,1.465000033378601,6.926000118255615
1773237403249272600,11.1502724609375,6.724999904632568,0.6320000290870667,6.789000034332275
1773237403259343000,11.160343017578125,6.129000186920166,-0.257999986410141,7.5960001945495605
1773237403269413400,11.170413330078125,5.109000205993652,-1.1510000228881836,8.402999877929688
1773237403279484000,11.18048388671875,4.2779998779296875,-1.4259999990463257,8.746000289916992
1773237403289554200,11.19055419921875,4.438000202178955,-1.0980000495910645,8.942000389099121
1773237403299624700,11.200624755859375,4.151000022888184,-0.7900000214576721,8.743000030517578
1773237403309695000,11.210695068359374,3.7149999141693115,-0.4830000102519989,8.895999908447266
1773237403319765500,11.220765625,3.566999912261963,-0.0949999988079071,8.711999893188477
1773237403329835800,11.230835693359374,4.0269999504089355,0.19300000369548798,8.324000358581543
1773237403339906300,11.24090625,4.514999866485596,0.35100001096725464,8.218999862670898
1773237403349976600,11.2509765625,4.691999912261963,0.20800000429153442,7.833000183105469
1773237403360047000,11.261047119140626,5.046000003814697,0.1379999965429306,7.800000190734863
1773237403370117400,11.271117431640626,5.681000232696533,0.07100000232458115,7.9670000076293945
1773237403380188000,11.28118798828125,5.251999855041504,0.2290000021457672,7.9670000076293945
1773237403390258200,11.291258056640626,5.1570000648498535,0.6579999923706055,7.795000076293945
1773237403400328400,11.301328369140625,5.123000144958496,0.984000027179718,7.675000190734863
1773237403410399000,11.31139892578125,4.251999855041504,0.9950000047683716,8.232999801635742
1773237403420469200,11.32146923828125,3.4539999961853027,0.7699999809265137,8.812999725341797
1773237403430539800,11.331539794921875,2.819999933242798,0.5210000276565552,9.038000106811523
1773237403440610000,11.341610107421875,2.421999931335449,0.382999986410141,9.319999694824219
1773237403450680600,11.3516806640625,2.371999979019165,0.03099999949336052,9.425000190734863
1773237403460750800,11.361750732421875,1.9390000104904175,-0.33500000834465027,9.694000244140625
1773237403470821400,11.3718212890625,2.138000011444092,-0.5429999828338623,9.604999542236328
1773237403480891600,11.3818916015625,2.8010001182556152,-0.6629999876022339,9.461000442504883
1773237403490962000,11.3919619140625,3.0309998989105225,-0.5910000205039978,9.482999801635742
1773237403501032400,11.402032470703125,3.4830000400543213,-0.23899999260902405,9.015999794006348
1773237403511102700,11.412102783203125,4.460000038146973,0.2529999911785126,8.461000442504883
1773237403521173000,11.422173095703124,4.0269999504089355,0.7630000114440918,8.156999588012695
1773237403531243500,11.432243408203124,4.730000019073486,1.1729999780654907,7.946000099182129
1773237403541313800,11.442313720703124,4.2729997634887695,1.3209999799728394,7.690000057220459
1773237403551384300,11.45238427734375,4.416999816894531,1.0770000219345093,7.986999988555908
1773237403561454600,11.46245458984375,4.089000225067139,0.375,8.652000427246094
1773237403571525000,11.472525146484376,2.8889999389648438,-0.34200000762939453,9.005999565124512
1773237403581595400,11.482595458984376,3.2290000915527344,-0.7319999933242798,9.348999977111816
1773237403591666000,11.492666015625,2.680999994277954,-0.9620000123977661,9.444999694824219
1773237403601736200,11.502736083984376,2.315000057220459,-0.9929999709129333,9.684000015258789
1773237403611806700,11.512806640625,2.486999988555908,-0.8450000286102295,9.682000160217285
1773237403621877000,11.522876953125,2.319000005722046,-0.2770000100135803,9.430000305175781
1773237403631947300,11.532947265625,3.069000005722046,0.4880000054836273,8.89900016784668
1773237403642017800,11.543017822265625,3.7869999408721924,0.9309999942779541,8.468000411987305
1773237403652088000,11.553088134765625,4.043000221252441,0.968999981880188,8.42199993133545
1773237403662158600,11.56315869140625,4.070000171661377,0.7390000224113464,8.282999992370605
1773237403672228900,11.573228759765625,4.434000015258789,0.3109999895095825,8.206999778747559
1773237403682299400,11.58329931640625,4.423999786376953,-0.03799999877810478,8.458000183105469
1773237403692369700,11.59336962890625,4.006999969482422,-0.30799999833106995,8.583000183105469
1773237403702440200,11.603440185546875,3.688999891281128,-0.25999999046325684,8.512999534606934
1773237403712510500,11.613510498046875,3.5209999084472656,-0.289000004529953,8.630999565124512
1773237403722581000,11.6235810546875,3.9760000705718994,-0.40400001406669617,9.100000381469727
1773237403732651300,11.6336513671875,2.50600004196167,-0.34700000286102295,9.128999710083008
1773237403742721800,11.6437216796875,3.6389999389648438,0.10700000077486038,8.996999740600586
1773237403752792000,11.6537919921875,3.7109999656677246,0.5360000133514404,8.88700008392334
1773237403762862300,11.6638623046875,3.062000036239624,0.8519999980926514,8.767000198364258
1773237403772932900,11.673932861328124,4.2779998779296875,1.0390000343322754,8.529999732971191
1773237403783003100,11.684003173828126,3.703000068664551,0.8809999823570251,8.256999969482422
1773237403793073700,11.69407373046875,4.449999809265137,0.4690000116825104,8.388999938964844
1773237403803144200,11.704144287109376,4.058000087738037,-0.1809999942779541,8.463000297546387
1773237403813214500,11.71421435546875,4.050000190734863,-0.5450000166893005,8.652000427246094
1773237403823285000,11.724284912109376,4.284999847412109,-0.5210000276565552,8.588000297546387
1773237403833355300,11.734355224609375,4.201000213623047,-0.09000000357627869,8.564000129699707
1773237403843425800,11.74442578125,4.085999965667725,0.41100001335144043,8.588000297546387
1773237403853496000,11.75449609375,4.2179999351501465,0.8849999904632568,8.401000022888184
1773237403863566300,11.76456640625,3.88100004196167,0.9620000123977661,8.269000053405762
1773237403873636900,11.774636962890625,3.5910000801086426,0.5879999995231628,8.604000091552734
1773237403883707100,11.78470703125,2.944000005722046,0.004000000189989805,8.894000053405762
1773237403893777700,11.794777587890625,3.049999952316284,-0.4259999990463257,9.13599967956543
1773237403903848000,11.804847900390625,3.4709999561309814,-0.5210000276565552,9.152999877929688
1773237403913918500,11.81491845703125,3.871000051498413,-0.5289999842643738,9.065999984741211
1773237403923988700,11.82498876953125,4.289999961853027,-0.4860000014305115,8.795999526977539
1773237403934059300,11.835059326171875,4.058000087738037,-0.5360000133514404,8.54699993133545
1773237403944129500,11.845129638671875,4.4670000076293945,-0.3799999952316284,8.661999702453613
1773237403954199800,11.85519970703125,3.742000102996826,0.004000000189989805,8.333999633789062
1773237403964270300,11.865270263671874,4.821000099182129,0.550000011920929,8.123000144958496
1773237403974340600,11.875340576171874,4.1529998779296875,0.9739999771118164,8.041999816894531
1773237403984411100,11.8854111328125,4.377999782562256,0.9950000047683716,8.1899995803833
1773237403994481400,11.8954814453125,4.254000186920166,0.8539999723434448,8.39799976348877
1773237404004552000,11.905552001953126,4.145999908447266,0.5189999938011169,8.51099967956543
1773237404014622200,11.915622314453126,3.437999963760376,0.33000001311302185,8.647000312805176
1773237404024692500,11.9256923828125,4.050000190734863,0.19300000369548798,8.812999725341797
1773237404034763000,11.935762939453125,3.950000047683716,-0.03099999949336052,8.961000442504883
1773237404044833300,11.945833251953125,3.4570000171661377,-0.22200000286102295,8.944000244140625
1773237404054903600,11.955903564453125,3.9709999561309814,-0.03799999877810478,9.03499984741211
1773237404064974000,11.96597412109375,4.10099983215332,0.007000000216066837,8.407999992370605
1773237404075044400,11.97604443359375,3.9790000915527344,0.052000001072883606,8.633000373840332
1773237404085115000,11.986114990234375,3.739000082015991,0.0689999982714653,8.50100040435791
1773237404095185200,11.99618505859375,4.890999794006348,0.22499999403953552,8.21399974822998
1773237404105255400,12.00625537109375,4.421999931335449,0.1770000010728836,8.104000091552734
1773237404115326000,12.016325927734375,4.247000217437744,0.06400000303983688,8.251999855041504
1773237404125396200,12.026396240234375,4.593999862670898,-0.10199999809265137,8.418000221252441
1773237404135466800,12.036466796875,4.10099983215332,-0.328000009059906,8.484999656677246
1773237404145537000,12.046537109375,3.9240000247955322,-0.5410000085830688,8.717000007629395
1773237404155607600,12.056607666015625,4.513000011444092,-0.40400001406669617,9.208000183105469
1773237404165677800,12.066677734375,3.4040000438690186,-0.12600000202655792,8.769000053405762
1773237404175748400,12.076748291015624,4.24399995803833,0.5289999842643738,8.635000228881836
1773237404185818600,12.086818603515624,3.947999954223633,1.0740000009536743,8.390999794006348
1773237404195889200,12.09688916015625,3.0759999752044678,1.2419999837875366,8.3100004196167
1773237404205959700,12.106959716796876,4.072000026702881,1.0579999685287476,8.458000183105469
1773237404216030000,12.117030029296876,2.877000093460083,0.7490000128746033,8.50100040435791
1773237404226100500,12.1271005859375,4.326000213623047,0.2680000066757202,8.539999961853027
1773237404236170800,12.137170654296876,4.3429999351501465,-0.32499998807907104,8.975000381469727
1773237404246241300,12.1472412109375,3.1449999809265137,-0.765999972820282,8.675999641418457
1773237404256311600,12.1573115234375,4.86899995803833,-0.7609999775886536,8.791000366210938
1773237404266382000,12.167382080078125,4.189000129699707,-0.5879999995231628,8.559000015258789
1773237404276452400,12.177452392578125,3.7219998836517334,-0.2840000092983246,8.52299976348877
1773237404286522600,12.187522705078125,4.002999782562256,0.3799999952316284,8.135000228881836
1773237404296593200,12.19759326171875,3.8399999141693115,0.9160000085830688,8.024999618530273
1773237404306663400,12.207663330078125,5.060999870300293,1.0959999561309814,8.772000312805176
1773237404316733700,12.217733642578125,3.2960000038146973,0.44999998807907104,8.401000022888184
1773237404326804200,12.22780419921875,4.4120001792907715,-0.1289999932050705,8.777000427246094
1773237404336874500,12.23787451171875,3.4519999027252197,-0.6460000276565552,9.04699993133545
1773237404346945000,12.247945068359375,3.0980000495910645,-0.7540000081062317,8.868000030517578
1773237404357015300,12.258015380859375,2.9179999828338623,-0.20999999344348907,8.875
1773237404367085800,12.2680859375,3.5139999389648438,0.2630000114440918,8.635000228881836
1773237404377156000,12.278156005859374,3.865999937057495,0.3970000147819519,8.585000038146973
1773237404387226600,12.2882265625,3.365999937057495,0.37299999594688416,8.991999626159668
1773237404397297000,12.298296875,3.7679998874664307,0.1120000034570694,8.881999969482422
1773237404407367400,12.308367431640624,4.103000164031982,-0.33000001311302185,8.6899995803833
1773237404417437700,12.318437744140626,3.559999942779541,-0.23899999260902405,8.951000213623047
1773237404427508200,12.32850830078125,2.7049999237060547,0.052000001072883606,8.86299991607666
1773237404437578500,12.33857861328125,4.235000133514404,0.7080000042915344,8.760000228881836
1773237404447649000,12.34864892578125,3.7060000896453857,1.0579999685287476,8.359999656677246
1773237404457719300,12.35871923828125,2.5369999408721924,0.9909999966621399,8.529999732971191
1773237404467789800,12.368789794921875,4.145999908447266,0.7940000295639038,8.869999885559082
1773237404477860000,12.378860107421875,3.055000066757202,-0.06700000166893005,8.543999671936035
1773237404487930600,12.3889306640625,2.865000009536743,-0.8489999771118164,9.272000312805176
1773237404498001000,12.3990009765625,2.496999979019165,-1.0789999961853027,9.793999671936035
1773237404508071400,12.409071533203125,3.6600000858306885,-0.4620000123977661,9.708000183105469
1773237404518141700,12.4191416015625,3.2360000610351562,0.4300000071525574,8.784000396728516
1773237404528212200,12.429212158203125,2.8289999961853027,0.7080000042915344,8.369999885559082
1773237404538282800,12.43928271484375,3.1530001163482666,0.8180000185966492,8.857999801635742
1773237404548353000,12.44935302734375,2.5399999618530273,0.5090000033378601,8.77400016784668
1773237404558423300,12.45942333984375,2.7190001010894775,-0.05000000074505806,8.918000221252441
1773237404568493800,12.469493896484375,3.1019999980926514,-0.48100000619888306,9.46399974822998
1773237404578564000,12.479564208984375,3.4059998989105225,-0.8230000138282776,9.477999687194824
1773237404588634600,12.489634521484374,2.5799999237060547,-0.7080000042915344,9.46399974822998
1773237404598705000,12.499704833984374,2.9040000438690186,-0.35899999737739563,8.855999946594238
1773237404608775400,12.509775390625,2.9200000762939453,0.20499999821186066,8.894000053405762
1773237404618845700,12.519845703125,2.23799991607666,0.7229999899864197,9.085000038146973
1773237404628916200,12.529916259765624,2.635999917984009,0.9520000219345093,8.956000328063965
1773237404638986500,12.539986572265626,2.183000087738037,0.847000002861023,8.989999771118164
1773237404649056800,12.550056884765626,2.8410000801086426,0.5070000290870667,9.333999633789062
1773237404659127300,12.560127197265626,2.3529999256134033,-0.12399999797344208,9.513999938964844
1773237404669197600,12.570197509765626,1.8329999446868896,-0.47099998593330383,9.902000427246094
1773237404679268000,12.58026806640625,1.9079999923706055,-0.16899999976158142,9.595000267028809
1773237404689338400,12.59033837890625,1.7109999656677246,0.2370000034570694,9.232000350952148
1773237404699408600,12.60040869140625,1.6679999828338623,0.4569999873638153,9.373000144958496
1773237404709479200,12.610479248046875,0.6769999861717224,0.41600000858306885,9.71500015258789
1773237404719549700,12.6205498046875,1.253999948501587,0.44699999690055847,10
1773237404729620000,12.630619873046875,1.4290000200271606,0.29600000381469727,9.842000007629395
1773237404739690200,12.640690185546875,0.6389999985694885,-0.020999999716877937,10.029000282287598
1773237404749760800,12.6507607421875,0.6119999885559082,-0.38499999046325684,10.267999649047852
1773237404759831000,12.6608310546875,-0.04500000178813934,-0.25099998712539673,10.262999534606934
1773237404769901600,12.670901611328125,-0.1459999978542328,0.10000000149011612,9.993000030517578
1773237404779971800,12.680971923828125,0.4860000014305115,0.23899999260902405,10.392999649047852
1773237404790042400,12.69104248046875,-1.0410000085830688,0.20100000500679016,10.793000221252441
1773237404800112600,12.701112548828124,-1.6200000047683716,0.09000000357627869,10.824000358581543
1773237404810183200,12.71118310546875,-1.8240000009536743,-0.004000000189989805,11.093999862670898
1773237404820253400,12.72125341796875,-2.2090001106262207,-0.4860000014305115,11.6899995803833
1773237404830323700,12.73132373046875,-3.4590001106262207,-1.1319999694824219,12.281999588012695
1773237404840394200,12.741394287109374,-3.621999979019165,-1.340000033378601,12.569000244140625
1773237404850464500,12.751464599609376,-3.384999990463257,-1.1059999465942383,12.272000312805176
1773237404860535000,12.76153515625,-3.2079999446868896,-0.6940000057220459,11.91100025177002
1773237404870605300,12.771605224609376,-2.746000051498413,-0.3370000123977661,11.73799991607666
1773237404880675800,12.78167578125,-3.0160000324249268,0.09799999743700027,11.42199993133545
1773237404890746000,12.79174609375,-1.8140000104904175,0.6890000104904175,11.50100040435791
1773237404900816600,12.801816650390625,-1.9359999895095825,0.9620000123977661,10.626999855041504
1773237404910887000,12.811886962890625,-1.3760000467300415,1.0859999656677246,10.442999839782715
1773237404920957200,12.821957275390625,-0.7059999704360962,0.7319999933242798,10.026000022888184
1773237404931027700,12.83202783203125,0.17900000512599945,0.1120000034570694,10.265999794006348
1773237404941098000,12.842097900390625,1.0770000219345093,-0.5450000166893005,10.598999977111816
1773237404951168500,12.85216845703125,1.4789999723434448,-1.0069999694824219,10.534000396728516
1773237404961238800,12.86223876953125,3.25600004196167,-0.8180000185966492,10.10099983215332
1773237404971309000,12.87230908203125,2.937000036239624,-0.05700000002980232,8.46500015258789
1773237404981379600,12.882379638671875,4.375999927520752,1.2400000095367432,6.979000091552734
1773237404991449900,12.892449951171875,6.2170000076293945,1.9359999895095825,6.603000164031982
1773237405001520400,12.902520263671875,5.49399995803833,1.715999960899353,7.261000156402588
1773237405011590700,12.912590576171874,5.297999858856201,1.121999979019165,8.439000129699707
1773237405021661200,12.9226611328125,3.811000108718872,0.44999998807907104,8.559000015258789
1773237405031731500,12.9327314453125,3.178999900817871,-0.01600000075995922,9.305999755859375
1773237405041802000,12.942802001953124,1.8380000591278076,-0.2750000059604645,9.708000183105469
1773237405051872300,12.952872314453124,0.7419999837875366,-0.9599999785423279,10.144000053405762
1773237405061942800,12.96294287109375,-0.5070000290870667,-1.5839999914169312,11.123000144958496
1773237405072013000,12.973012939453126,-0.3009999990463257,-1.6629999876022339,11.876999855041504
1773237405082083600,12.98308349609375,-0.17900000512599945,-1.319000005722046,11.086999893188477
1773237405092153900,12.99315380859375,0.1889999955892563,-0.4300000071525574,10.164999961853027
1773237405102224400,13.003224365234376,2.3310000896453857,0.550000011920929,8.970999717712402
1773237405112294700,13.013294677734375,3.864000082015991,0.8690000176429749,7.5920000076293945
1773237405122365000,13.023364990234375,4.605999946594238,0.7149999737739563,7.863999843597412
1773237405132435500,13.033435546875,5.9629998207092285,0.5210000276565552,7.841000080108643
1773237405142505700,13.043505615234375,5.85099983215332,0.550000011920929,6.794000148773193
1773237405152576300,13.053576171875,7.26800012588501,0.9980000257492065,6.7870001792907715
1773237405162646500,13.063646484375,7.093999862670898,0.9879999756813049,7.040999889373779
1773237405172717000,13.073717041015625,5.5879998207092285,0.33500000834465027,7.626999855041504
1773237405182787300,13.083787353515625,4.0980000495910645,0.06400000303983688,8.402999877929688
1773237405192857900,13.09385791015625,2.9639999866485596,0.19300000369548798,8.630999565124512
1773237405202928000,13.10392822265625,2.755000114440918,0.44999998807907104,9.809000015258789
1773237405212998400,13.113998291015625,2.3510000705718994,0.3109999895095825,10.225000381469727
1773237405223069000,13.12406884765625,1.8020000457763672,-0.13600000739097595,10.435999870300293
1773237405233139200,13.13413916015625,1.5679999589920044,-0.49000000953674316,10.074000358581543
1773237405243209700,13.144209716796874,1.6970000267028809,-0.5529999732971191,9.161999702453613
1773237405253280000,13.154280029296874,3.447000026702881,-0.33000001311302185,9.137999534606934
1773237405263350300,13.164350341796874,4.684999942779541,-0.08100000023841858,8.692999839782715
1773237405273420800,13.1744208984375,5.683000087738037,0.0430000014603138,7.84499979019165
1773237405283491300,13.1844912109375,6.806000232696533,0.26499998569488525,7.374000072479248
1773237405293561600,13.1945615234375,6.868000030517578,0.004000000189989805,6.513999938964844
1773237405303632100,13.204632080078126,5.692999839782715,-0.22699999809265137,6.223999977111816
1773237405313702400,13.214702392578126,6.824999809265137,0.0949999988079071,7.078999996185303
1773237405323773000,13.22477294921875,5.820000171661377,0.15299999713897705,7.586999893188477
1773237405333843200,13.23484326171875,4.72599983215332,-0.032999999821186066,8.239999771118164
1773237405343913700,13.244913818359375,4.988999843597412,-0.22499999403953552,9.083000183105469
1773237405353984000,13.25498388671875,3.0399999618530273,-0.24799999594688416,8.987000465393066
1773237405364054300,13.26505419921875,4.249000072479248,0.10700000077486038,9.406000137329102
1773237405374124800,13.275124755859375,2.8010001182556152,0.12200000137090683,8.734000205993652
1773237405384195000,13.285195068359375,3.365999937057495,0.2680000066757202,8.800999641418457
1773237405394265600,13.295265625,3.128999948501587,0.4830000102519989,8.963000297546387
1773237405404335900,13.3053359375,5.165999889373779,0.5450000166893005,8.232999801635742
1773237405414406400,13.315406494140625,4.776000022888184,0.4970000088214874,7.796999931335449
1773237405424476700,13.3254765625,6.050000190734863,0.5960000157356262,8.27400016784668
1773237405434547200,13.335547119140625,5.767000198364258,0.5669999718666077,7.519999980926514
1773237405444617500,13.345617431640624,5.5879998207092285,0.7540000081062317,7.330999851226807
1773237405454688000,13.35568798828125,5.59499979019165,1.0549999475479126,7.909999847412109
1773237405464758300,13.36575830078125,4.184999942779541,0.9810000061988831,7.714000225067139
1773237405474828500,13.37582861328125,4.40500020980835,0.675000011920929,8.069999694824219
1773237405484899000,13.385899169921874,3.263000011444092,-0.2630000114440918,8.880000114440918
1773237405494969300,13.39596923828125,2.755000114440918,-1.1269999742507935,9.82800006866455
1773237405505040000,13.406039794921876,2.492000102996826,-1.5390000343322754,9.930999755859375
1773237405515110100,13.416110107421876,2.6089999675750732,-1.3350000381469727,9.621999740600586
1773237405525180700,13.4261806640625,3.190999984741211,-0.6150000095367432,9.35099983215332
1773237405535251000,13.4362509765625,3.7320001125335693,0.19599999487400055,8.769000053405762
1773237405545321500,13.446321533203125,4.658999919891357,0.7730000019073486,8.267000198364258
1773237405555391700,13.456391845703125,4.895999908447266,1.121999979019165,7.849999904632568
1773237405565462000,13.4664619140625,5.848999977111816,1.3140000104904175,7.307000160217285
